ax,ay,az,qw,qx,qy,qz,droll,dpitch,dyaw,heart,Scenario_Label,Fall
0.064,0.023,-0.122,-0.7072,0.1079,-0.58,0.3894,8.6,-3.3,0.7,1023,bed,0
0.021,0.049,-0.119,-0.7072,0.1068,-0.5794,0.3906,10.4,1.7,2.5,1023,bed,0
-0.004,0.09,-0.126,-0.7076,0.1062,-0.578,0.3921,11.4,7.2,5.8,1023,bed,0
0.007,0.113,-0.151,-0.7083,0.1062,-0.5758,0.3941,12.7,13.8,9.9,1023,bed,0
-0.005,0.114,-0.155,-0.7096,0.1071,-0.5723,0.3968,14.6,23.0,14.8,1023,bed,0
-0.008,0.067,-0.152,-0.7114,0.1088,-0.5674,0.3999,15.7,31.9,19.3,0,bed,0
-0.005,0.088,-0.114,-0.7138,0.1115,-0.5613,0.4035,16.8,40.8,24.1,0,bed,0
-0.035,0.1,-0.021,-0.7165,0.1146,-0.5546,0.4071,15.5,45.2,28.0,0,bed,0
-0.028,0.076,0.03,-0.7194,0.1185,-0.5471,0.411,11.3,45.3,29.7,0,bed,0
-0.01,0.055,0.014,-0.722,0.1232,-0.5398,0.4146,6.1,44.7,31.3,0,bed,0
-0.032,0.051,-0.006,-0.7241,0.129,-0.5332,0.4179,-2.8,45.2,34.0,0,bed,0
-0.087,0.01,0.039,-0.7255,0.1363,-0.5269,0.421,-6.6,41.6,36.5,0,bed,0
-0.069,0.016,0.015,-0.7264,0.1434,-0.5206,0.4249,-0.2,37.9,38.6,0,bed,0
-0.065,0.1,0.036,-0.727,0.1493,-0.5145,0.4293,2.7,32.8,40.0,0,bed,0
-0.097,0.054,0.033,-0.7275,0.1543,-0.5086,0.4337,2.4,29.2,34.6,0,bed,0
-0.051,-0.027,0.023,-0.7274,0.1605,-0.5041,0.4367,-19.4,27.7,30.7,0,bed,0
-0.038,-0.051,-0.042,-0.7262,0.1702,-0.5021,0.4374,-41.2,27.2,34.1,0,bed,0
-0.018,-0.018,-0.037,-0.724,0.1815,-0.5012,0.4376,-44.4,26.1,41.1,0,bed,0
-0.042,0.054,0.006,-0.7213,0.1929,-0.5,0.4385,-43.7,22.3,45.1,0,bed,0
-0.06,0.088,0.027,-0.7183,0.2036,-0.4987,0.4401,-42.0,17.8,48.1,0,bed,0
-0.045,0.145,0.01,-0.7146,0.2144,-0.4979,0.4419,-51.0,14.7,51.6,0,bed,0
-0.028,0.207,-0.031,-0.7099,0.227,-0.4984,0.4425,-72.5,15.8,57.1,0,bed,0
-0.071,0.079,-0.096,-0.7036,0.2433,-0.5003,0.4418,-86.8,19.7,62.1,0,bed,0
-0.052,-0.04,-0.101,-0.6964,0.2614,-0.5017,0.4414,-74.7,22.8,64.7,1023,bed,0
-0.041,-0.061,-0.084,-0.6898,0.2774,-0.5007,0.4431,-48.3,25.9,69.8,1023,bed,0
-0.036,-0.013,-0.079,-0.6841,0.2911,-0.497,0.4473,-29.2,29.2,76.7,1023,bed,0
-0.065,0.024,-0.12,-0.6786,0.3042,-0.4916,0.4529,-23.4,33.5,83.2,1023,bed,0
-0.06,-0.145,-0.199,-0.6742,0.3156,-0.4841,0.4597,2.1,36.3,81.1,1023,bed,0
-0.044,-0.132,-0.094,-0.6721,0.3226,-0.4736,0.4687,34.7,37.7,76.7,1023,bed,0
-0.057,0.082,-0.048,-0.6707,0.3278,-0.4614,0.4792,43.5,39.1,80.1,1023,bed,0
-0.112,0.052,-0.016,-0.6694,0.3331,-0.4481,0.4898,46.0,40.3,79.0,1023,bed,0
-0.117,-0.031,0.124,-0.6688,0.3361,-0.4342,0.501,66.5,35.2,76.2,1023,bed,0
-0.12,-0.028,0.12,-0.6695,0.3352,-0.4188,0.5136,91.5,34.1,71.6,1023,bed,0
-0.099,-0.008,-0.034,-0.6716,0.3317,-0.4005,0.5275,114.2,39.9,71.0,1023,bed,0
-0.061,-0.051,-0.125,-0.6751,0.3267,-0.3797,0.5414,135.3,50.8,67.1,1023,bed,0
-0.116,-0.023,0.099,-0.6799,0.3196,-0.356,0.5556,143.7,50.3,65.0,1023,bed,0
-0.103,-0.04,0.261,-0.6843,0.3111,-0.333,0.5691,139.6,44.8,61.2,1023,bed,0
-0.071,-0.062,0.293,-0.6878,0.303,-0.3115,0.5813,120.1,41.7,57.6,1023,bed,0
-0.063,-0.15,0.261,-0.6894,0.2985,-0.2938,0.5909,67.0,37.5,49.9,1023,bed,0
-0.082,-0.17,0.237,-0.6885,0.2996,-0.2829,0.5966,12.2,28.3,38.9,0,bed,0
-0.121,-0.082,0.287,-0.6855,0.3043,-0.2792,0.5994,-23.4,11.7,28.8,0,bed,0
-0.099,0.064,0.215,-0.6813,0.3102,-0.2812,0.6003,-48.9,-1.5,19.1,0,bed,0
-0.06,0.086,0.116,-0.6763,0.3177,-0.2874,0.5991,-69.5,-5.2,9.0,0,bed,0
-0.042,0.073,0.097,-0.6717,0.3255,-0.2943,0.5967,-69.7,-4.2,2.8,0,bed,0
-0.019,0.117,0.02,-0.6676,0.3328,-0.3007,0.594,-70.0,-1.1,2.6,0,bed,0
0.008,0.03,-0.074,-0.6631,0.3412,-0.3079,0.5906,-73.4,0.2,3.5,0,bed,0
-0.027,-0.158,-0.145,-0.6587,0.3491,-0.3144,0.5875,-49.2,-0.9,4.4,0,bed,0
-0.064,-0.083,-0.232,-0.6559,0.3531,-0.3182,0.5862,-28.0,-4.8,3.7,0,bed,0
-0.054,-0.199,-0.183,-0.6538,0.3557,-0.3219,0.585,-31.5,-8.7,-3.0,0,bed,0
-0.016,0.01,-0.013,-0.6512,0.3582,-0.3267,0.5837,-29.4,-13.5,0.4,0,bed,0
-0.011,0.174,0.013,-0.6478,0.3613,-0.3318,0.5827,-55.4,-12.9,4.1,0,bed,0
-0.002,0.081,0.013,-0.6428,0.3671,-0.3385,0.5807,-66.1,-9.1,7.4,0,bed,0
0.007,-0.038,-0.002,-0.6378,0.3735,-0.3446,0.5785,-49.8,-3.2,8.8,0,bed,0
-0.014,-0.086,-0.023,-0.6338,0.3789,-0.3485,0.5771,-35.8,-0.7,10.3,0,bed,0
-0.024,-0.067,-0.02,-0.6305,0.3832,-0.3512,0.5762,-25.9,-1.6,8.5,0,bed,0
-0.037,0.0,-0.032,-0.6277,0.3864,-0.3535,0.5757,-23.9,-4.0,5.5,1023,bed,0
-0.036,-0.016,-0.056,-0.625,0.3895,-0.3563,0.5749,-26.4,-4.9,1.8,1023,bed,0
-0.015,-0.06,-0.088,-0.6227,0.3922,-0.3594,0.5737,-17.2,-4.4,0.4,1023,bed,0
-0.01,-0.03,-0.064,-0.6214,0.3934,-0.3609,0.5732,-0.6,-2.6,2.0,1023,bed,0
-0.009,0.006,-0.016,-0.621,0.3933,-0.3608,0.5738,5.7,-1.2,3.4,1023,bed,0
-0.009,0.012,0.006,-0.621,0.3929,-0.36,0.5747,5.6,-0.5,3.8,1023,bed,0
-0.012,0.019,0.008,-0.621,0.3925,-0.359,0.5754,4.6,0.8,2.6,1023,bed,0
-0.016,0.012,-0.001,-0.6211,0.3924,-0.3583,0.5759,2.9,1.2,1.5,1023,bed,0
-0.013,0.003,-0.013,-0.6212,0.3924,-0.3578,0.5761,2.7,0.9,0.1,1023,bed,0
-0.013,-0.001,-0.023,-0.6215,0.3922,-0.3573,0.5763,6.1,0.6,-0.1,1023,bed,0
-0.016,0.014,-0.005,-0.6219,0.3917,-0.3565,0.5767,5.9,0.0,0.1,1023,bed,0
-0.015,0.017,-0.004,-0.6221,0.3912,-0.3559,0.5771,3.7,-0.1,0.7,1023,bed,0
-0.019,0.019,0.002,-0.6222,0.391,-0.3555,0.5775,1.7,-0.3,0.9,1023,bed,0
-0.016,0.02,0.007,-0.622,0.391,-0.3553,0.5778,-1.8,-0.5,0.7,1023,bed,0
-0.021,0.017,0.002,-0.6217,0.3914,-0.3555,0.5778,-4.6,-0.6,0.2,1023,bed,0
-0.019,0.015,-0.007,-0.6211,0.392,-0.356,0.5776,-6.3,-0.8,0.1,1023,bed,0
-0.014,0.005,-0.015,-0.6206,0.3927,-0.3566,0.5773,-4.8,-0.7,-0.1,1023,bed,0
-0.012,-0.001,-0.019,-0.6202,0.3933,-0.357,0.5771,-2.6,-0.5,-0.3,0,bed,0
-0.01,0.008,-0.006,-0.6199,0.3935,-0.3573,0.577,-1.8,-0.5,0.0,0,bed,0
-0.01,0.012,-0.001,-0.6197,0.3938,-0.3576,0.577,-2.6,-0.4,0.0,0,bed,0
-0.009,0.008,-0.004,-0.6194,0.3941,-0.3578,0.5768,-2.9,-0.1,0.1,0,bed,0
-0.011,0.01,-0.001,-0.6192,0.3945,-0.3581,0.5767,-3.6,0.0,0.0,0,bed,0
-0.01,0.013,-0.009,-0.6188,0.395,-0.3585,0.5765,-5.0,0.0,-0.1,0,bed,0
-0.008,0.013,-0.007,-0.6184,0.3957,-0.359,0.5761,-5.9,-0.1,-0.2,0,bed,0
-0.007,0.013,-0.008,-0.6179,0.3964,-0.3596,0.5757,-7.5,-0.2,0.0,0,bed,0
-0.007,0.006,-0.013,-0.6174,0.3972,-0.3604,0.5753,-7.1,-0.5,0.2,0,bed,0
-0.007,0.0,-0.008,-0.6167,0.398,-0.3611,0.575,-5.8,-0.5,0.4,0,bed,0
-0.015,0.004,-0.011,-0.6162,0.3987,-0.3616,0.5748,-5.5,-0.6,0.5,0,bed,0
-0.006,0.0,-0.009,-0.6157,0.3993,-0.3622,0.5746,-5.5,-0.5,0.3,0,bed,0
-0.009,0.002,-0.017,-0.6151,0.4,-0.3627,0.5743,-4.7,-0.4,0.2,0,bed,0
-0.013,0.009,-0.021,-0.6147,0.4005,-0.3631,0.5741,-2.2,-0.3,0.3,0,bed,0
-0.011,-0.002,-0.015,-0.6145,0.4008,-0.3633,0.5741,0.0,0.0,0.0,0,bed,0
-0.011,-0.016,-0.021,-0.6146,0.4007,-0.363,0.5742,6.0,0.5,0.1,0,bed,0
-0.009,-0.007,-0.028,-0.6153,0.3998,-0.3619,0.5748,16.2,1.3,0.2,0,bed,0
-0.009,-0.004,-0.024,-0.6166,0.3982,-0.3599,0.5758,20.5,1.8,0.2,1023,bed,0
-0.013,-0.003,-0.015,-0.618,0.3963,-0.3577,0.5769,21.2,2.2,-0.2,1023,bed,0
-0.008,0.004,-0.005,-0.6196,0.3944,-0.3553,0.5781,20.7,2.3,-0.2,1023,bed,0
-0.008,0.012,-0.005,-0.6211,0.3924,-0.353,0.5792,20.3,2.3,-0.1,1023,bed,0
-0.011,0.019,0.004,-0.6226,0.3905,-0.3507,0.5803,19.3,2.1,0.1,1023,bed,0
-0.012,0.035,0.015,-0.6239,0.3888,-0.3485,0.5813,14.2,1.4,0.2,1023,bed,0
-0.009,0.04,0.022,-0.6247,0.3876,-0.3471,0.5821,6.9,0.7,0.2,1023,bed,0
-0.009,0.029,0.009,-0.6251,0.387,-0.3463,0.5825,2.9,0.1,0.2,1023,bed,0
-0.006,0.022,0.0,-0.6252,0.3869,-0.3461,0.5827,-1.0,-0.1,0.2,1023,bed,0
-0.006,0.016,-0.004,-0.6249,0.3872,-0.3463,0.5826,-3.8,-0.5,0.3,1023,bed,0
-0.006,0.01,-0.007,-0.6246,0.3876,-0.3467,0.5825,-4.1,-0.9,0.2,1023,bed,0
-0.006,-0.004,-0.01,-0.6242,0.388,-0.3471,0.5824,-2.0,-0.8,0.2,1023,bed,0
0.002,-0.015,-0.013,-0.624,0.3881,-0.3473,0.5824,0.8,-0.7,0.0,1023,bed,0
-0.008,-0.006,-0.022,-0.624,0.3881,-0.3472,0.5825,2.1,0.0,0.2,1023,bed,0
-0.012,-0.006,-0.022,-0.6241,0.388,-0.3469,0.5827,4.3,0.3,-0.1,1023,bed,0
-0.004,0.0,-0.013,-0.6244,0.3876,-0.3463,0.5829,6.6,0.6,-0.1,1023,bed,0
-0.002,0.01,0.0,-0.6249,0.3869,-0.3456,0.5832,6.8,0.7,0.0,1023,bed,0
-0.007,0.022,0.003,-0.6253,0.3863,-0.3448,0.5836,4.6,0.4,0.0,0,bed,0
-0.007,0.024,0.002,-0.6256,0.386,-0.3443,0.5839,1.8,0.0,0.1,0,bed,0
-0.009,0.021,0.007,-0.6256,0.3859,-0.3442,0.584,-1.2,-0.2,0.1,0,bed,0
-0.007,0.013,-0.002,-0.6255,0.3861,-0.3443,0.584,-1.9,-0.3,0.1,0,bed,0
-0.006,0.01,-0.007,-0.6253,0.3863,-0.3445,0.5839,-2.7,-0.4,0.2,0,bed,0
-0.005,0.008,-0.015,-0.625,0.3867,-0.3448,0.5838,-3.1,-0.2,0.1,0,bed,0
-0.002,0.002,-0.014,-0.6247,0.387,-0.3451,0.5836,-2.0,-0.1,0.1,0,bed,0
-0.005,0.0,-0.01,-0.6245,0.3873,-0.3453,0.5836,-0.8,0.0,0.1,0,bed,0
-0.004,0.006,-0.006,-0.6244,0.3874,-0.3454,0.5836,-0.5,-0.1,0.2,0,bed,0
-0.009,0.007,-0.01,-0.6244,0.3875,-0.3453,0.5836,0.7,0.0,0.0,0,bed,0
-0.01,0.014,0.0,-0.6244,0.3875,-0.3452,0.5837,0.5,0.0,0.0,0,bed,0
-0.003,0.015,-0.001,-0.6244,0.3875,-0.3451,0.5837,0.0,0.0,0.0,0,bed,0
-0.003,0.013,-0.002,-0.6243,0.3876,-0.3452,0.5837,-1.2,-0.1,0.0,0,bed,0
-0.006,0.012,-0.003,-0.6242,0.3877,-0.3453,0.5836,-1.4,-0.2,0.0,0,bed,0
-0.008,0.01,-0.007,-0.6241,0.3879,-0.3454,0.5836,-2.2,-0.2,0.0,0,bed,0
-0.008,0.008,-0.007,-0.6239,0.3882,-0.3457,0.5834,-2.7,-0.1,-0.1,0,bed,0
-0.005,0.007,-0.007,-0.6236,0.3885,-0.346,0.5833,-2.7,-0.1,0.0,0,bed,0
-0.005,0.009,-0.006,-0.6234,0.3889,-0.3462,0.5831,-2.5,-0.2,0.0,1023,bed,0
-0.003,0.007,-0.008,-0.6232,0.3891,-0.3465,0.583,-2.3,-0.3,0.1,1023,bed,0
-0.005,0.006,-0.007,-0.623,0.3894,-0.3467,0.583,-1.3,-0.2,0.2,1023,bed,0
-0.005,0.006,-0.007,-0.6229,0.3895,-0.3468,0.5829,-0.9,-0.1,0.0,1023,bed,0
-0.002,0.01,-0.007,-0.6228,0.3896,-0.3469,0.5829,-0.6,0.0,0.0,1023,bed,0
-0.003,0.008,-0.01,-0.6228,0.3897,-0.3469,0.5829,0.0,0.0,0.0,1023,bed,0
-0.005,0.008,-0.003,-0.6228,0.3897,-0.3469,0.5829,0.0,0.0,0.0,1023,bed,0
-0.005,0.012,-0.007,-0.6227,0.3897,-0.3469,0.5829,0.0,0.0,0.0,1023,bed,0
-0.004,0.011,-0.008,-0.6227,0.3898,-0.3469,0.5829,-0.7,0.0,0.0,1023,bed,0
-0.002,0.013,-0.003,-0.6226,0.3899,-0.3469,0.5829,-0.7,0.1,0.0,1023,bed,0
-0.003,0.013,-0.006,-0.6226,0.39,-0.347,0.5828,-0.9,-0.2,0.0,1023,bed,0
-0.006,0.008,-0.008,-0.6224,0.3901,-0.3471,0.5828,-1.6,-0.2,0.1,1023,bed,0
-0.007,0.006,-0.007,-0.6222,0.3904,-0.3473,0.5828,-1.8,-0.4,0.1,1023,bed,0
-0.004,0.006,-0.011,-0.622,0.3906,-0.3475,0.5827,-0.9,-0.4,0.1,1023,bed,0
-0.001,0.006,-0.008,-0.622,0.3907,-0.3476,0.5827,0.0,0.0,0.0,1023,bed,0
0.0,0.008,-0.003,-0.6219,0.3907,-0.3476,0.5827,0.0,0.0,0.0,1023,bed,0
-0.002,0.014,-0.006,-0.622,0.3907,-0.3476,0.5827,0.0,0.0,0.0,1023,bed,0
-0.004,0.008,-0.007,-0.6219,0.3907,-0.3476,0.5827,0.0,0.0,0.0,1023,bed,0
-0.003,0.009,-0.004,-0.6219,0.3907,-0.3476,0.5827,0.0,0.0,0.0,0,bed,0
0.0,0.014,-0.002,-0.6219,0.3908,-0.3475,0.5827,0.0,0.0,0.0,0,bed,0
-0.002,0.01,-0.008,-0.6219,0.3908,-0.3475,0.5827,0.0,0.0,0.0,0,bed,0
-0.005,0.009,-0.007,-0.6219,0.3908,-0.3475,0.5827,0.0,0.0,0.0,0,bed,0
-0.002,0.008,-0.005,-0.6219,0.3908,-0.3475,0.5828,-0.5,-0.3,0.0,0,bed,0
-0.005,0.01,-0.001,-0.6218,0.3909,-0.3475,0.5827,-0.8,0.0,-0.1,0,bed,0
-0.002,0.007,-0.009,-0.6218,0.391,-0.3476,0.5827,-0.8,0.0,0.0,0,bed,0
-0.002,0.008,-0.002,-0.6217,0.3911,-0.3477,0.5826,-0.7,0.0,-0.1,0,bed,0
0.0,0.009,-0.009,-0.6216,0.3912,-0.3477,0.5826,0.0,0.0,0.0,0,bed,0
0.002,0.01,-0.001,-0.6216,0.3912,-0.3477,0.5826,0.0,0.0,0.0,0,bed,0
0.0,0.009,-0.007,-0.6216,0.3912,-0.3478,0.5826,0.0,0.0,0.0,0,bed,0
-0.002,0.014,-0.009,-0.6216,0.3912,-0.3477,0.5826,0.6,0.0,0.1,0,bed,0
-0.005,0.013,-0.003,-0.6216,0.3912,-0.3477,0.5826,0.0,0.0,0.0,0,bed,0
-0.003,0.009,-0.008,-0.6215,0.3913,-0.3477,0.5826,-0.8,-0.1,0.1,0,bed,0
-0.003,0.01,-0.006,-0.6214,0.3914,-0.3478,0.5826,-0.5,0.1,0.0,0,bed,0
-0.003,0.006,-0.003,-0.6214,0.3915,-0.3478,0.5826,-0.8,0.0,0.0,0,bed,0
-0.004,0.008,-0.006,-0.6213,0.3915,-0.3479,0.5826,-0.5,0.0,0.0,0,bed,0
-0.002,0.02,-0.007,-0.6213,0.3915,-0.3479,0.5826,0.0,0.0,0.0,0,bed,0
0.021,-0.004,0.003,-0.6213,0.3915,-0.3479,0.5826,0.0,0.0,0.0,0,bed,0
0.014,0.018,0.003,-0.6213,0.3914,-0.3479,0.5827,0.2,-0.7,0.9,0,bed,0
0.007,0.013,0.0,-0.6212,0.3913,-0.3479,0.5829,-0.3,-1.2,1.3,1023,bed,0
0.0,-0.001,0.009,-0.6209,0.3913,-0.348,0.5832,-1.2,-1.7,1.4,1023,bed,0
-0.013,-0.005,0.0,-0.6205,0.3914,-0.3482,0.5834,-2.3,-2.2,1.0,1023,bed,0
-0.006,0.01,-0.011,-0.6199,0.3917,-0.3487,0.5835,-6.0,-2.3,0.6,1023,bed,0
0.004,0.023,-0.018,-0.6192,0.3924,-0.3497,0.5832,-7.4,-1.8,0.2,1023,bed,0
0.008,0.008,-0.023,-0.6185,0.3931,-0.3507,0.5829,-5.2,-1.1,0.5,1023,bed,0
-0.001,0.004,-0.015,-0.6182,0.3934,-0.351,0.5828,-0.5,-0.4,0.7,1023,bed,0
-0.018,-0.005,-0.01,-0.6182,0.3933,-0.3509,0.583,3.5,-0.4,0.5,1023,bed,0
-0.014,0.004,-0.012,-0.6183,0.393,-0.3505,0.5833,3.6,-0.2,0.2,1023,bed,0
-0.003,0.006,-0.015,-0.6184,0.3928,-0.3502,0.5835,3.0,0.3,-0.3,1023,bed,0
0.002,0.0,-0.014,-0.6186,0.3926,-0.3499,0.5836,3.0,0.6,-0.3,1023,bed,0
0.001,0.003,-0.005,-0.6189,0.3924,-0.3496,0.5836,3.0,1.0,-0.8,1023,bed,0
0.004,0.007,-0.007,-0.6193,0.3921,-0.3493,0.5836,3.2,0.8,-0.9,1023,bed,0
0.007,0.017,-0.005,-0.6197,0.3917,-0.349,0.5836,3.2,0.6,-0.4,0,bed,0
0.006,0.013,0.002,-0.6199,0.3913,-0.3486,0.5838,3.3,0.3,0.3,0,bed,0
-0.003,0.004,0.0,-0.6201,0.391,-0.3483,0.584,2.6,0.0,0.7,0,bed,0
-0.009,0.005,-0.007,-0.6202,0.3908,-0.348,0.5842,2.1,-0.1,0.4,0,bed,0
-0.004,0.011,-0.009,-0.6203,0.3906,-0.3477,0.5844,2.9,-0.3,0.0,0,bed,0
-0.01,0.011,-0.005,-0.6204,0.3903,-0.3474,0.5847,3.5,-0.3,0.2,0,bed,0
-0.004,0.006,-0.008,-0.6205,0.39,-0.3471,0.5849,2.4,-0.5,-0.1,0,bed,0
0.0,0.007,-0.005,-0.6206,0.3897,-0.3469,0.5851,1.9,-0.8,-0.3,0,bed,0
0.006,0.016,0.003,-0.6208,0.3893,-0.3468,0.5853,2.7,-0.7,0.0,0,bed,0
0.0,0.006,0.002,-0.621,0.3889,-0.3465,0.5855,2.7,-0.5,0.1,0,bed,0
-0.01,0.0,-0.001,-0.6211,0.3886,-0.3462,0.5858,3.7,-0.4,-0.1,0,bed,0
-0.01,-0.015,-0.007,-0.6216,0.3879,-0.3456,0.5861,8.7,-0.2,-1.7,0,bed,0
-0.008,-0.017,0.009,-0.6225,0.3867,-0.3447,0.5865,12.4,0.0,-3.6,0,bed,0
0.001,-0.001,0.005,-0.6238,0.3851,-0.3438,0.5867,9.3,-0.3,-5.0,0,bed,0
0.005,0.028,0.001,-0.6249,0.3837,-0.3433,0.5867,6.5,-0.8,-5.0,0,bed,0
-0.001,0.008,-0.008,-0.6258,0.3826,-0.343,0.5867,8.3,-0.8,-4.0,0,bed,0
-0.006,-0.005,-0.005,-0.6268,0.3812,-0.3423,0.587,12.6,-0.6,-3.9,0,bed,0
0.004,-0.015,0.015,-0.6281,0.3793,-0.3412,0.5874,14.8,-0.9,-4.9,0,bed,0
0.009,-0.028,-0.004,-0.6296,0.3772,-0.3402,0.5877,15.9,-1.8,-5.8,0,bed,0
0.015,-0.032,-0.002,-0.6312,0.3748,-0.3393,0.5881,18.0,-2.1,-7.3,0,bed,0
0.012,-0.022,0.018,-0.6332,0.3718,-0.3382,0.5884,21.9,-2.6,-8.4,1023,bed,0
0.004,-0.026,0.017,-0.6355,0.3682,-0.3366,0.5891,25.8,-3.3,-8.9,1023,bed,0
-0.004,0.003,0.012,-0.6379,0.3645,-0.3349,0.5898,24.2,-3.4,-8.9,1023,bed,0
-0.007,0.026,-0.006,-0.64,0.361,-0.3335,0.5904,19.7,-4.7,-8.9,1023,bed,0
-0.016,0.009,-0.021,-0.642,0.3577,-0.3325,0.5909,22.1,-4.9,-10.3,1023,bed,0
-0.035,-0.039,-0.003,-0.6442,0.3539,-0.3311,0.5916,28.7,-7.4,-10.2,1023,bed,0
-0.007,0.004,0.044,-0.6466,0.3483,-0.3289,0.5934,45.0,-12.9,-6.4,1023,bed,0
-0.023,0.006,0.012,-0.6492,0.3417,-0.3258,0.5962,42.7,-13.5,-5.5,1023,bed,0
0.0,0.104,0.007,-0.6513,0.3354,-0.3233,0.5988,31.5,-13.8,-5.8,1023,bed,0
0.004,0.103,-0.006,-0.6529,0.3304,-0.3223,0.6004,18.1,-13.3,-7.3,1023,bed,0
0.008,0.112,-0.038,-0.6537,0.3271,-0.323,0.6009,0.0,-13.1,-8.1,1023,bed,0
0.048,0.065,-0.068,-0.6535,0.3262,-0.3262,0.5999,-17.3,-10.5,-8.9,1023,bed,0
0.075,0.057,-0.049,-0.6529,0.3269,-0.3306,0.5979,-24.2,-7.2,-8.0,1023,bed,0
0.035,0.043,-0.051,-0.652,0.3285,-0.3346,0.5957,-23.8,-3.4,-4.5,1023,bed,0
-0.036,0.016,-0.059,-0.6507,0.3307,-0.3373,0.5944,-17.2,-1.9,0.4,1023,bed,0
-0.021,0.02,-0.067,-0.6492,0.3328,-0.339,0.5938,-12.9,-2.1,3.4,1023,bed,0
0.014,-0.017,-0.038,-0.648,0.3342,-0.3405,0.5935,-8.8,-2.1,1.6,1023,bed,0
-0.002,-0.057,0.0,-0.6472,0.3351,-0.3417,0.5932,-5.0,-2.2,1.3,0,bed,0
0.0,-0.072,0.021,-0.6464,0.3357,-0.3426,0.5932,-7.5,-4.8,2.4,0,bed,0
0.028,-0.066,0.014,-0.6451,0.3362,-0.3443,0.5933,-11.5,-7.5,3.7,0,bed,0
0.044,-0.057,-0.052,-0.6431,0.3376,-0.3471,0.5931,-19.5,-8.2,6.3,0,bed,0
0.005,-0.051,-0.087,-0.6406,0.3401,-0.3503,0.5925,-21.8,-4.6,4.9,0,bed,0
-0.014,-0.047,-0.032,-0.6384,0.3428,-0.3528,0.5918,-15.5,-1.3,5.7,0,bed,0
-0.008,-0.01,-0.014,-0.6365,0.3449,-0.3538,0.592,-10.8,-1.5,11.6,0,bed,0
0.008,-0.009,-0.044,-0.6342,0.3471,-0.3542,0.5931,-10.9,0.6,20.2,0,bed,0
0.024,-0.025,-0.073,-0.6308,0.3506,-0.354,0.5947,-11.2,5.9,29.9,0,bed,0
0.047,-0.05,-0.027,-0.6272,0.355,-0.3523,0.5969,-5.8,14.7,38.0,0,bed,0
0.057,-0.103,0.079,-0.6244,0.359,-0.3479,0.6,11.3,22.8,41.0,0,bed,0
0.056,-0.055,0.124,-0.6234,0.3614,-0.3402,0.6041,29.0,30.5,42.1,0,bed,0
0.074,0.001,0.02,-0.6235,0.3629,-0.3301,0.6086,41.7,37.9,43.3,0,bed,0
0.07,0.049,-0.044,-0.6245,0.3645,-0.3182,0.613,50.5,46.7,42.7,0,bed,0
0.053,-0.033,0.11,-0.6263,0.3659,-0.3047,0.6171,52.4,51.4,41.3,0,bed,0
0.096,-0.042,0.244,-0.6282,0.367,-0.2904,0.6214,60.3,49.9,42.8,0,bed,0
0.144,0.019,0.195,-0.6297,0.368,-0.2757,0.626,57.6,48.6,43.5,1023,bed,0
0.135,-0.087,0.153,-0.6311,0.3686,-0.2609,0.6306,65.4,47.2,44.2,1023,bed,0
0.151,-0.036,0.114,-0.6327,0.368,-0.2451,0.6356,72.7,45.9,44.4,1023,bed,0
0.143,-0.041,0.069,-0.6345,0.3666,-0.2294,0.6404,73.0,42.8,39.3,1023,bed,0
0.1,-0.113,0.054,-0.6371,0.3636,-0.2149,0.6446,80.0,36.9,34.7,1023,bed,0
0.054,-0.173,0.026,-0.6404,0.3585,-0.1998,0.6491,99.1,30.5,31.6,1023,bed,0
0.097,-0.062,-0.071,-0.6444,0.3513,-0.1827,0.6541,107.8,31.7,31.3,1023,bed,0
0.049,-0.195,-0.029,-0.6485,0.3436,-0.1644,0.6589,122.7,34.1,30.5,1023,bed,0
-0.029,-0.432,0.027,-0.6551,0.3304,-0.1409,0.6646,193.2,28.9,27.4,1023,bed,0
0.025,-0.062,-0.042,-0.6648,0.3094,-0.1117,0.6706,219.3,25.3,22.1,1023,bed,0
0.054,0.233,-0.173,-0.6732,0.2904,-0.0844,0.6747,157.8,35.9,14.8,1023,bed,0
-0.027,0.098,-0.132,-0.6786,0.2806,-0.0641,0.6756,101.8,43.9,5.3,1023,bed,0
-0.039,-0.076,-0.012,-0.6831,0.2763,-0.0484,0.6742,79.2,42.3,-3.1,1023,bed,0
-0.04,-0.115,0.168,-0.6878,0.2707,-0.0349,0.6725,90.7,26.6,-6.1,1023,bed,0
0.037,0.034,0.097,-0.6932,0.2608,-0.0216,0.6714,98.2,12.7,-5.2,1023,bed,0
0.115,0.079,-0.012,-0.698,0.2503,-0.0105,0.6708,76.8,9.5,-5.0,1023,bed,0
0.13,0.048,-0.07,-0.7018,0.2421,-0.0019,0.6698,61.7,11.1,-5.6,1023,bed,0
0.046,-0.131,0.054,-0.7055,0.2357,0.0052,0.6683,64.8,10.0,-9.4,1023,bed,0
0.015,-0.111,0.085,-0.7098,0.2271,0.0142,0.6666,87.8,4.4,-9.5,0,bed,0
0.039,0.027,0.066,-0.7147,0.2157,0.0242,0.6648,91.0,0.0,-11.7,0,bed,0
0.056,0.075,-0.036,-0.7192,0.2046,0.0336,0.663,75.7,2.5,-12.6,0,bed,0
-0.001,-0.042,-0.051,-0.7233,0.1961,0.0415,0.6606,68.3,3.0,-15.6,0,bed,0
0.03,0.068,-0.207,-0.7274,0.188,0.0496,0.6579,73.2,4.7,-14.8,0,bed,0
0.04,0.221,-0.285,-0.7311,0.1811,0.058,0.6552,49.9,15.3,-15.8,0,bed,0
0.122,0.21,-0.315,-0.7337,0.1803,0.0631,0.6519,4.9,25.3,-19.9,0,bed,0
0.22,0.149,-0.415,-0.7352,0.1864,0.0647,0.6484,-33.7,40.3,-21.5,0,bed,0
0.306,0.048,-0.514,-0.7352,0.1989,0.0648,0.6446,-62.7,60.8,-19.2,0,bed,0
0.17,-0.323,-0.379,-0.7345,0.2136,0.0676,0.6405,-31.2,78.1,-15.0,0,bed,0
0.106,-0.279,-0.3,-0.7349,0.2219,0.0784,0.636,43.2,83.9,-5.5,0,bed,0
0.049,0.042,-0.224,-0.7364,0.2231,0.0967,0.6312,75.6,87.8,-0.8,0,bed,0
0.032,0.258,-0.18,-0.7371,0.2255,0.1148,0.6264,33.9,90.9,-2.8,0,bed,0
0.075,0.142,-0.069,-0.7355,0.2358,0.1257,0.6224,-31.8,88.0,-5.1,0,bed,0
0.068,-0.151,-0.033,-0.7324,0.25,0.1317,0.6193,-37.8,79.0,-0.8,0,bed,0
0.007,-0.166,0.131,-0.7293,0.2605,0.1383,0.6172,-10.3,62.0,7.8,0,bed,0
0.047,-0.015,0.032,-0.7268,0.2671,0.1445,0.616,-10.9,51.6,10.4,0,bed,0
0.114,0.155,-0.038,-0.723,0.2763,0.1478,0.6156,-62.5,54.6,6.6,0,bed,0
0.082,0.24,-0.089,-0.7154,0.2966,0.1439,0.6159,-156.0,69.1,2.7,0,bed,0
-0.03,-0.049,-0.224,-0.7024,0.3292,0.1326,0.6169,-220.2,82.6,5.1,0,bed,0
-0.179,-0.269,-0.271,-0.687,0.3635,0.1211,0.6173,-187.7,87.3,12.3,0,bed,0
-0.214,-0.145,-0.331,-0.6731,0.3912,0.1158,0.6167,-127.5,89.1,18.2,0,bed,0
-0.223,-0.062,-0.291,-0.6625,0.4119,0.1171,0.6144,-71.2,89.7,16.2,1023,bed,0
-0.24,0.0,-0.178,-0.6555,0.4267,0.1228,0.6107,-36.0,84.2,12.3,1023,bed,0
-0.302,0.006,-0.066,-0.6505,0.438,0.13,0.6066,-19.1,75.6,11.2,1023,bed,0
-0.354,0.066,-0.045,-0.6466,0.447,0.137,0.6026,-13.7,65.1,7.2,1023,bed,0
-0.312,0.015,-0.062,-0.644,0.4544,0.1432,0.5985,-7.0,57.4,0.4,1023,bed,0
-0.242,-0.01,-0.066,-0.6427,0.4604,0.1491,0.5937,5.3,54.7,-5.1,1023,bed,0
-0.199,0.041,-0.037,-0.6432,0.4645,0.1562,0.5882,24.1,53.9,-8.1,1023,bed,0
-0.171,0.134,0.011,-0.645,0.4668,0.1647,0.5821,33.9,54.8,-7.4,1023,bed,0
-0.091,0.182,0.013,-0.6469,0.4685,0.1741,0.5758,37.7,56.2,-3.1,1023,bed,0
0.009,0.245,-0.04,-0.6478,0.4702,0.1845,0.5701,31.7,60.4,6.9,1023,bed,0
0.076,0.336,-0.106,-0.6459,0.4738,0.1949,0.5658,6.7,67.7,20.7,1023,bed,0
0.155,0.263,-0.264,-0.6401,0.4807,0.205,0.563,-8.9,80.0,34.8,1023,bed,0
0.131,0.25,0.004,-0.6336,0.485,0.2195,0.5612,45.7,78.0,64.6,1023,bed,0
-0.132,0.665,0.46,-0.6285,0.4812,0.2414,0.5612,71.3,66.1,91.2,0,bed,0
-0.567,0.168,0.512,-0.6194,0.4815,0.2559,0.5646,-34.2,45.0,74.2,0,bed,0
-0.398,-0.122,-0.132,-0.6061,0.4882,0.2605,0.5712,-61.9,37.2,60.6,0,bed,0
-0.03,-0.005,-0.484,-0.595,0.4945,0.2649,0.5753,-32.0,48.9,50.1,0,bed,0
0.088,0.145,-0.352,-0.5855,0.5003,0.2728,0.5764,-7.6,62.0,49.0,0,bed,0
-0.034,0.202,-0.114,-0.5778,0.5032,0.2843,0.5762,10.7,56.0,54.9,0,bed,0
-0.071,0.221,-0.04,-0.57,0.5052,0.2943,0.5771,-5.8,45.3,53.9,0,bed,0
-0.035,0.018,0.01,-0.561,0.5075,0.302,0.5799,-22.0,33.8,55.9,0,bed,0
0.113,-0.149,-0.144,-0.5517,0.51,0.3077,0.5837,-14.1,30.6,58.5,0,bed,0
-0.112,0.132,0.046,-0.5436,0.51,0.3167,0.5865,7.3,33.1,61.2,0,bed,0
-0.12,0.035,0.322,-0.5359,0.5096,0.3248,0.5894,-1.7,25.7,58.0,0,bed,0
-0.106,-0.091,0.119,-0.5285,0.5087,0.3319,0.5929,-0.2,20.8,58.5,0,bed,0
-0.037,-0.055,-0.109,-0.5214,0.5082,0.339,0.5957,0.5,24.5,59.6,0,bed,0
-0.106,0.026,-0.086,-0.5128,0.5081,0.3466,0.5988,-7.7,26.3,61.6,0,bed,0
-0.135,0.178,-0.101,-0.5041,0.5076,0.3541,0.6022,-1.6,23.4,62.0,0,bed,0
-0.02,0.104,-0.216,-0.4964,0.5063,0.3614,0.6054,1.3,22.6,57.2,0,bed,0
0.026,0.012,-0.246,-0.4893,0.5047,0.3687,0.608,4.9,23.6,56.0,0,bed,0
-0.083,0.001,0.094,-0.4822,0.5038,0.376,0.61,0.2,22.3,53.2,0,bed,0
-0.078,-0.065,0.159,-0.4754,0.5019,0.381,0.6138,-10.2,16.7,51.3,0,bed,0
0.038,-0.028,0.045,-0.4686,0.5008,0.3852,0.6173,-6.0,15.3,50.7,0,bed,0
0.05,0.016,-0.044,-0.4621,0.4991,0.3908,0.62,8.5,15.8,49.6,0,bed,0
-0.028,0.142,-0.043,-0.4551,0.4965,0.3999,0.6215,19.9,17.5,43.4,1023,bed,0
0.096,0.124,-0.032,-0.447,0.4944,0.4098,0.6226,18.1,18.7,37.9,1023,bed,0
0.002,-0.059,-0.1,-0.439,0.493,0.4192,0.6231,16.3,17.3,35.9,1023,bed,0
-0.079,0.012,-0.128,-0.4322,0.4916,0.4285,0.6227,23.3,14.1,34.9,1023,bed,0
-0.067,0.095,-0.108,-0.4258,0.4893,0.4375,0.6226,20.2,11.9,33.4,1023,bed,0
-0.028,0.085,-0.096,-0.4195,0.4871,0.4453,0.6231,12.6,9.4,33.4,1023,bed,0
-0.04,0.031,-0.093,-0.4127,0.4855,0.4523,0.6239,7.5,7.0,32.1,1023,bed,0
-0.107,0.11,-0.017,-0.406,0.484,0.4583,0.625,1.6,5.3,31.2,1023,bed,0
-0.077,0.012,-0.017,-0.3999,0.4827,0.4633,0.6263,2.6,4.2,28.0,1023,bed,0
-0.087,0.036,0.001,-0.3946,0.4814,0.4678,0.6273,3.8,3.2,26.8,1023,bed,0
-0.045,-0.008,-0.04,-0.3898,0.4804,0.4719,0.628,2.5,2.8,23.3,1023,bed,0
-0.019,0.032,-0.055,-0.3853,0.4792,0.4762,0.6285,6.8,2.3,23.5,1023,bed,0
-0.065,0.01,-0.058,-0.381,0.478,0.4806,0.6287,8.6,2.1,24.6,1023,bed,0
-0.111,-0.02,-0.055,-0.3765,0.4763,0.4851,0.6292,5.4,0.4,26.9,1023,bed,0
-0.093,-0.082,-0.096,-0.3723,0.475,0.4889,0.6297,3.8,-0.4,26.9,1023,bed,0
-0.091,0.003,-0.147,-0.368,0.4739,0.4923,0.6304,-3.3,-2.8,25.7,1023,bed,0
-0.124,0.018,-0.191,-0.3626,0.4727,0.4944,0.6329,-21.9,-5.4,24.0,0,bed,0
-0.161,-0.019,-0.204,-0.3557,0.4731,0.4929,0.6376,-54.7,-7.8,16.2,0,bed,0
-0.178,-0.041,-0.22,-0.3472,0.4764,0.4861,0.645,-94.5,-9.9,1.6,0,bed,0
-0.177,0.083,-0.215,-0.3368,0.483,0.4731,0.6553,-139.0,-13.8,-10.7,0,bed,0
-0.192,0.099,-0.147,-0.3244,0.4926,0.4528,0.6685,-186.8,-21.3,-32.3,0,bed,0
-0.149,0.094,-0.129,-0.3107,0.5055,0.4245,0.6838,-227.1,-22.9,-53.7,0,bed,0
-0.135,0.013,-0.154,-0.2967,0.5208,0.391,0.6984,-232.0,-19.5,-66.8,0,bed,0
-0.124,0.043,-0.117,-0.2835,0.5359,0.3575,0.7103,-214.1,-15.2,-70.7,0,bed,0
-0.096,0.062,-0.077,-0.2716,0.5494,0.326,0.7197,-192.8,-11.1,-71.2,0,bed,0
-0.073,0.043,-0.072,-0.2614,0.5611,0.2975,0.7268,-161.8,-8.8,-67.3,0,bed,0
-0.043,0.052,-0.06,-0.2531,0.5706,0.2734,0.7317,-130.5,-6.3,-59.9,0,bed,0
-0.031,0.047,-0.046,-0.2465,0.5783,0.254,0.7349,-100.3,-2.9,-52.0,0,bed,0
-0.003,0.077,-0.068,-0.241,0.5848,0.2384,0.7368,-85.2,0.8,-45.1,0,bed,0
0.005,0.027,-0.073,-0.2355,0.591,0.2245,0.738,-77.6,3.8,-40.5,0,bed,0
0.008,0.0,-0.042,-0.2307,0.5968,0.2119,0.7386,-67.0,5.3,-36.9,0,bed,0
0.011,0.0,0.016,-0.2266,0.6016,0.2007,0.7391,-57.3,4.6,-34.2,0,bed,0
0.015,0.038,0.021,-0.223,0.6054,0.1907,0.7398,-53.0,2.5,-32.1,0,bed,0
0.008,0.069,-0.002,-0.219,0.6088,0.1809,0.7406,-55.5,0.6,-30.9,0,bed,0
-0.008,0.038,-0.012,-0.2147,0.6118,0.1712,0.7417,-51.9,-4.1,-29.2,1023,bed,0
-0.005,0.042,0.0,-0.2112,0.6136,0.1621,0.7432,-44.3,-12.2,-26.7,1023,bed,0
0.0,0.071,-0.01,-0.2079,0.614,0.1535,0.7457,-44.9,-20.0,-23.7,1023,bed,0
0.003,0.095,0.007,-0.2037,0.6134,0.1445,0.7491,-53.9,-27.5,-20.3,1023,bed,0
0.022,0.114,-0.017,-0.1977,0.612,0.134,0.7538,-70.0,-34.1,-16.8,1023,bed,0
0.062,0.118,-0.026,-0.1892,0.6103,0.1214,0.7594,-88.2,-39.1,-12.4,1023,bed,0
0.08,0.125,-0.056,-0.1785,0.6084,0.1069,0.7658,-102.8,-43.9,-8.0,1023,bed,0
0.098,0.112,-0.08,-0.1661,0.6061,0.0908,0.7724,-114.5,-47.7,-4.5,1023,bed,0
0.107,0.095,-0.096,-0.1523,0.6035,0.0737,0.7791,-119.5,-50.7,-0.5,1023,bed,0
0.107,0.08,-0.119,-0.138,0.6002,0.0563,0.7857,-118.4,-52.9,2.9,1023,bed,0
0.081,0.076,-0.126,-0.1237,0.5965,0.0395,0.7919,-114.6,-54.2,6.6,1023,bed,0
0.027,0.06,-0.147,-0.109,0.5919,0.0238,0.7981,-111.5,-55.3,10.7,1023,bed,0
-0.013,0.047,-0.156,-0.0936,0.586,0.0095,0.8048,-109.5,-55.4,14.9,1023,bed,0
-0.038,0.041,-0.167,-0.0778,0.5797,-0.0042,0.811,-110.3,-54.5,19.6,1023,bed,0
-0.052,0.017,-0.18,-0.0611,0.5734,-0.018,0.8167,-115.0,-51.2,24.5,1023,bed,0
-0.063,-0.032,-0.175,-0.0436,0.5676,-0.0319,0.8215,-117.2,-45.4,27.9,1023,bed,0
-0.043,-0.046,-0.179,-0.0257,0.5623,-0.0455,0.8252,-117.0,-38.0,30.3,1023,bed,0
0.001,-0.058,-0.171,-0.0079,0.558,-0.0591,0.8276,-117.8,-27.8,30.4,1023,bed,0
0.03,-0.095,-0.135,0.0093,0.555,-0.0724,0.8286,-111.2,-16.9,29.9,0,bed,0
0.063,-0.108,-0.113,0.0252,0.5532,-0.0842,0.8283,-97.6,-6.5,30.1,0,bed,0
0.1,-0.135,-0.078,0.0393,0.5529,-0.0939,0.8269,-80.2,3.7,29.8,0,bed,0
0.129,-0.136,-0.015,0.0514,0.5538,-0.1007,0.8248,-60.2,11.5,30.2,0,bed,0
0.146,-0.104,0.039,0.0614,0.5557,-0.1051,0.8223,-44.8,15.3,30.1,0,bed,0
0.149,-0.095,0.072,0.0702,0.5579,-0.108,0.8197,-37.9,16.1,30.2,0,bed,0
0.142,-0.097,0.098,0.0785,0.5601,-0.11,0.8172,-34.2,14.2,32.4,0,bed,0
0.137,-0.089,0.106,0.0872,0.562,-0.1115,0.8148,-35.5,11.1,36.8,0,bed,0
0.136,-0.09,0.109,0.097,0.5634,-0.1132,0.8126,-43.3,7.8,40.9,0,bed,0
0.142,-0.074,0.111,0.1083,0.5641,-0.1163,0.8101,-59.2,4.9,44.8,0,bed,0
0.148,-0.084,0.105,0.122,0.5642,-0.1214,0.8074,-77.3,2.5,47.9,0,bed,0
0.141,-0.105,0.092,0.1374,0.5635,-0.1286,0.8043,-92.3,1.2,49.0,0,bed,0
0.125,-0.121,0.079,0.1541,0.5622,-0.1375,0.8007,-103.0,0.3,48.8,0,bed,0
0.111,-0.128,0.07,0.1711,0.5604,-0.1477,0.7967,-109.1,-0.3,46.9,0,bed,0
0.107,-0.127,0.063,0.1879,0.5581,-0.1586,0.7924,-110.3,-1.2,43.9,0,bed,0
0.094,-0.127,0.064,0.204,0.5554,-0.1697,0.788,-108.1,-2.8,40.2,0,bed,0
0.074,-0.131,0.057,0.2192,0.5522,-0.1805,0.7837,-103.9,-4.7,36.6,0,bed,0
0.038,-0.135,0.051,0.2334,0.5487,-0.1908,0.7796,-98.4,-6.9,33.9,0,bed,0
-0.01,-0.117,0.038,0.2454,0.5452,-0.2021,0.7756,-93.0,-9.7,32.6,1023,bed,0
-0.021,-0.102,0.026,0.2567,0.5415,-0.2133,0.7715,-92.0,-12.2,30.7,1023,bed,0
-0.025,-0.096,0.031,0.2676,0.5374,-0.2244,0.7675,-91.5,-14.7,28.2,1023,bed,0
-0.021,-0.073,0.037,0.2784,0.5329,-0.2355,0.7635,-93.6,-15.7,24.9,1023,bed,0
-0.006,-0.056,0.044,0.2889,0.5278,-0.2472,0.7594,-97.8,-15.4,20.1,1023,bed,0
0.002,-0.045,0.024,0.2989,0.5225,-0.2597,0.755,-100.9,-14.5,14.9,1023,bed,0
0.011,-0.054,0.015,0.3083,0.517,-0.2729,0.7503,-100.5,-12.1,9.1,1023,bed,0
0.005,-0.059,0.035,0.3164,0.5116,-0.286,0.7458,-92.0,-10.8,5.1,1023,bed,0
0.0,-0.05,0.039,0.323,0.5066,-0.2978,0.7417,-78.7,-9.6,1.6,1023,bed,0
0.007,-0.031,0.025,0.3281,0.5023,-0.308,0.7382,-66.3,-8.9,-0.5,1023,bed,0
0.001,-0.022,0.029,0.332,0.4988,-0.3167,0.7352,-55.6,-7.7,-1.2,1023,bed,0
0.0,-0.002,0.026,0.3351,0.4961,-0.3241,0.7324,-47.8,-6.9,-0.3,1023,bed,0
0.001,0.005,0.027,0.3379,0.4938,-0.3306,0.7297,-44.4,-5.5,1.8,1023,bed,0
0.001,0.003,0.037,0.341,0.4921,-0.3365,0.7268,-42.3,-4.1,5.2,0,bed,0
0.003,-0.003,0.047,0.3442,0.4908,-0.3418,0.7237,-40.5,-2.7,9.4,0,bed,0
0.004,-0.012,0.047,0.3477,0.4899,-0.3465,0.7203,-38.1,-1.6,13.2,0,bed,0
0.008,-0.014,0.048,0.3513,0.4894,-0.3507,0.7168,-35.8,-0.7,16.7,0,bed,0
0.006,-0.023,0.043,0.3551,0.4893,-0.3544,0.7132,-33.3,-0.7,19.4,0,bed,0
0.007,-0.032,0.031,0.3591,0.4895,-0.3575,0.7096,-30.9,-1.1,21.8,0,bed,0
0.014,-0.039,0.018,0.3631,0.4897,-0.3601,0.706,-29.4,-2.3,24.0,0,bed,0
0.03,-0.043,-0.002,0.3674,0.4901,-0.3625,0.7023,-29.8,-3.3,26.1,0,bed,0
0.04,-0.053,-0.009,0.3721,0.4903,-0.3649,0.6984,-32.2,-4.4,27.9,0,bed,0
0.049,-0.059,-0.027,0.3771,0.4904,-0.3676,0.6943,-35.8,-5.7,28.8,0,bed,0
0.042,-0.068,-0.041,0.3825,0.4901,-0.3706,0.6899,-39.6,-6.8,29.1,0,bed,0
0.041,-0.075,-0.058,0.3884,0.4893,-0.3741,0.6852,-44.3,-8.4,28.8,0,bed,0
0.03,-0.081,-0.084,0.3946,0.4881,-0.3783,0.6803,-49.4,-9.8,28.2,0,bed,0
0.016,-0.095,-0.105,0.4016,0.486,-0.382,0.6756,-53.3,-11.0,27.5,0,bed,0
-0.004,-0.102,-0.135,0.4092,0.4832,-0.3857,0.6709,-56.1,-12.1,26.7,0,bed,0
-0.035,-0.107,-0.15,0.4168,0.48,-0.3896,0.6662,-57.3,-12.6,25.5,0,bed,0
-0.038,-0.127,-0.171,0.4242,0.4768,-0.3936,0.6615,-57.0,-12.5,24.1,0,bed,0
-0.032,-0.139,-0.18,0.4312,0.4735,-0.3976,0.657,-54.1,-11.8,21.8,0,bed,0
-0.034,-0.139,-0.19,0.4374,0.4704,-0.4014,0.6527,-49.9,-10.7,18.5,0,bed,0
-0.028,-0.145,-0.192,0.4427,0.4676,-0.405,0.6489,-45.0,-9.2,14.8,0,bed,0
-0.023,-0.151,-0.2,0.4468,0.4651,-0.4085,0.6457,-37.5,-7.6,9.9,1023,bed,0
-0.021,-0.145,-0.209,0.4496,0.4631,-0.4114,0.6433,-28.8,-6.5,5.4,1023,bed,0
-0.023,-0.145,-0.213,0.4512,0.4615,-0.4139,0.6418,-20.6,-5.1,0.2,1023,bed,0
-0.009,-0.14,-0.213,0.4515,0.4603,-0.4159,0.6411,-13.2,-4.4,-4.2,1023,bed,0
-0.006,-0.117,-0.214,0.4508,0.4593,-0.4178,0.6412,-9.3,-3.5,-9.0,1023,bed,0
0.001,-0.106,-0.221,0.4495,0.4582,-0.4199,0.6415,-9.7,-2.2,-12.6,1023,bed,0
0.009,-0.092,-0.211,0.4476,0.4569,-0.4225,0.642,-12.1,-0.6,-16.2,1023,bed,0
0.021,-0.082,-0.207,0.4457,0.4553,-0.4259,0.6422,-15.5,1.1,-18.9,1023,bed,0
0.012,-0.076,-0.2,0.4436,0.4535,-0.4299,0.6423,-17.6,3.1,-20.6,1023,bed,0
0.007,-0.067,-0.197,0.4413,0.4516,-0.4343,0.6422,-17.8,5.0,-21.5,1023,bed,0
0.0,-0.062,-0.181,0.4389,0.45,-0.4387,0.642,-17.0,6.5,-21.4,1023,bed,0
-0.002,-0.056,-0.171,0.4363,0.4486,-0.4431,0.6418,-15.6,7.7,-20.7,1023,bed,0
-0.017,-0.045,-0.156,0.4336,0.4476,-0.4473,0.6414,-14.1,9.2,-19.7,1023,bed,0
-0.034,-0.037,-0.143,0.4307,0.447,-0.4516,0.6408,-12.8,10.2,-18.4,1023,bed,0
-0.047,-0.025,-0.132,0.4273,0.4477,-0.4564,0.6391,-11.7,11.6,-17.3,1023,bed,0
-0.036,-0.021,-0.117,0.4241,0.4486,-0.4609,0.6374,-10.8,13.7,-16.1,0,bed,0
-0.023,-0.02,-0.088,0.4207,0.4499,-0.4651,0.6357,-7.6,16.3,-14.9,0,bed,0
0.0,-0.017,-0.058,0.4171,0.4516,-0.4688,0.6341,-2.5,18.9,-13.5,0,bed,0
0.018,-0.019,-0.033,0.4131,0.454,-0.4717,0.6329,5.1,21.1,-11.9,0,bed,0
0.03,-0.019,-0.011,0.4086,0.4571,-0.4734,0.6323,14.9,22.7,-10.2,0,bed,0
0.029,-0.013,0.016,0.4035,0.461,-0.4737,0.6325,25.7,23.1,-8.0,0,bed,0
0.006,-0.002,0.037,0.398,0.4656,-0.4725,0.6335,34.8,22.5,-6.1,0,bed,0
-0.023,0.011,0.039,0.3924,0.4708,-0.4701,0.6349,39.8,21.3,-3.6,0,bed,0
-0.032,0.014,0.051,0.387,0.4763,-0.4669,0.6366,42.1,19.6,-0.1,0,bed,0
-0.027,0.01,0.079,0.3823,0.4818,-0.4628,0.6382,42.4,17.5,3.9,0,bed,0
-0.007,0.01,0.099,0.3782,0.487,-0.4583,0.64,40.5,14.8,7.1,0,bed,0
-0.012,0.033,0.087,0.3751,0.4917,-0.4537,0.6415,33.9,11.1,8.0,0,bed,0
-0.018,0.045,0.067,0.3732,0.4954,-0.45,0.6423,22.1,7.7,7.1,0,bed,0
-0.026,0.029,0.061,0.3725,0.498,-0.4476,0.6424,9.2,4.8,6.2,0,bed,0
-0.007,0.0,0.064,0.3726,0.4995,-0.4463,0.6421,2.7,2.2,7.0,0,bed,0
0.009,-0.015,0.064,0.3733,0.5004,-0.4452,0.6418,1.9,0.0,9.1,0,bed,0
0.017,-0.026,0.052,0.3742,0.5013,-0.4437,0.6416,4.6,-2.1,11.1,0,bed,0
0.01,-0.022,0.039,0.3753,0.5022,-0.4418,0.6416,4.8,-4.5,11.7,0,bed,0
0.0,-0.014,0.021,0.3765,0.5028,-0.4401,0.6415,0.7,-7.5,10.4,0,bed,0
0.0,-0.016,0.005,0.3783,0.5026,-0.439,0.6413,-6.5,-10.0,8.2,1023,bed,0
-0.005,-0.026,-0.018,0.3806,0.5017,-0.4389,0.6408,-13.5,-11.5,5.9,1023,bed,0
-0.017,-0.033,-0.031,0.3831,0.5001,-0.4398,0.6399,-17.2,-11.6,4.1,1023,bed,0
-0.01,-0.038,-0.042,0.3854,0.4984,-0.4411,0.6389,-18.6,-10.9,2.8,1023,bed,0
-0.01,-0.041,-0.056,0.3875,0.4968,-0.4427,0.6379,-17.3,-9.6,1.5,1023,bed,0
0.001,-0.049,-0.062,0.389,0.4953,-0.4444,0.6369,-14.0,-8.1,0.3,1023,bed,0
0.006,-0.054,-0.064,0.3898,0.4943,-0.4458,0.6363,-8.3,-6.9,-0.6,1023,bed,0
0.009,-0.048,-0.068,0.39,0.4937,-0.4465,0.6361,-1.9,-6.1,-1.4,1023,bed,0
0.008,-0.04,-0.069,0.3894,0.4935,-0.4469,0.6364,2.7,-6.0,-2.8,1023,bed,0
0.005,-0.023,-0.074,0.3886,0.4935,-0.4469,0.6369,3.3,-5.4,-4.2,1023,bed,0
0.0,-0.019,-0.071,0.3877,0.4934,-0.4472,0.6373,1.6,-4.6,-5.4,1023,bed,0
0.002,-0.011,-0.067,0.3868,0.4932,-0.4478,0.6375,-0.6,-3.5,-6.0,1023,bed,0
0.007,-0.016,-0.067,0.386,0.493,-0.4487,0.6375,-2.3,-2.3,-6.2,1023,bed,0
0.006,-0.014,-0.07,0.3851,0.4929,-0.4498,0.6373,-2.0,-1.1,-6.5,1023,bed,0
0.006,-0.012,-0.069,0.3842,0.4928,-0.4509,0.6372,-1.1,-0.1,-6.7,0,bed,0
0.008,-0.012,-0.057,0.3831,0.4929,-0.4519,0.637,0.6,0.8,-6.8,0,bed,0
0.011,-0.004,-0.054,0.3818,0.4932,-0.4527,0.637,1.9,1.4,-7.0,0,bed,0
0.007,0.005,-0.054,0.3804,0.4936,-0.4535,0.637,1.5,2.5,-7.2,0,bed,0
0.0,0.009,-0.048,0.379,0.494,-0.4544,0.6368,0.4,3.4,-7.5,0,bed,0
-0.006,0.009,-0.042,0.3777,0.4945,-0.4554,0.6366,0.5,4.5,-7.6,0,bed,0
-0.005,0.01,-0.034,0.3763,0.495,-0.4563,0.6363,2.0,5.4,-6.7,0,bed,0
-0.003,0.01,-0.028,0.3749,0.4959,-0.4569,0.6361,4.3,6.2,-4.9,0,bed,0
-0.006,0.012,-0.022,0.3734,0.4971,-0.4571,0.6359,5.9,6.3,-2.9,0,bed,0
-0.003,0.013,-0.011,0.3722,0.4984,-0.4569,0.6357,6.6,6.3,-1.1,0,bed,0
0.0,0.014,-0.004,0.3713,0.4998,-0.4565,0.6355,5.8,5.8,0.3,0,bed,0
0.008,0.011,0.0,0.3706,0.5011,-0.4561,0.6352,4.4,5.0,1.2,0,bed,0
0.008,0.004,0.001,0.3701,0.5022,-0.4557,0.6348,3.5,4.5,1.6,0,bed,0
0.004,0.004,0.002,0.3697,0.5032,-0.4553,0.6345,4.0,3.7,1.9,0,bed,0
0.003,0.0,0.006,0.3694,0.5042,-0.4548,0.6343,4.3,3.0,2.1,0,bed,0
0.0,0.0,0.003,0.3692,0.505,-0.4542,0.6342,4.0,2.3,2.1,0,bed,0
0.0,0.0,0.003,0.3691,0.5057,-0.4536,0.6341,2.9,1.6,1.7,0,bed,0
-0.008,-0.001,0.002,0.369,0.5062,-0.4533,0.634,1.5,0.8,0.7,0,bed,0
-0.012,-0.007,0.001,0.3689,0.5065,-0.4531,0.6339,0.9,0.3,-0.5,1023,bed,0
-0.013,-0.008,-0.004,0.3687,0.5066,-0.4531,0.634,1.0,-0.3,-1.7,1023,bed,0
-0.013,-0.008,-0.008,0.3684,0.5065,-0.4531,0.6342,1.6,-0.7,-3.0,1023,bed,0
-0.013,-0.004,-0.004,0.3679,0.5064,-0.4532,0.6345,2.0,-1.1,-4.5,1023,bed,0
-0.003,0.0,-0.008,0.3671,0.5063,-0.4533,0.635,2.2,-1.2,-6.2,1023,bed,0
0.006,0.006,-0.019,0.3663,0.506,-0.4536,0.6356,2.5,-1.1,-7.0,1023,bed,0
0.009,0.005,-0.022,0.3654,0.5057,-0.4538,0.6361,3.4,-0.4,-7.3,1023,bed,0
0.014,0.016,-0.021,0.3643,0.5056,-0.4539,0.6367,4.9,-0.2,-6.4,1023,bed,0
0.013,0.021,-0.025,0.3633,0.5058,-0.4538,0.6372,5.2,0.5,-5.0,1023,bed,0
0.008,0.02,-0.029,0.3624,0.5063,-0.4535,0.6375,5.5,1.4,-3.0,1023,bed,0
0.002,0.022,-0.023,0.3617,0.5071,-0.4531,0.6376,6.5,2.6,-0.3,1023,bed,0
0.0,0.02,-0.021,0.3611,0.5084,-0.4523,0.6375,7.8,3.6,3.0,1023,bed,0
0.0,0.015,-0.02,0.3607,0.5101,-0.451,0.6372,9.1,4.8,7.0,1023,bed,0
0.001,0.009,-0.008,0.3606,0.5122,-0.4494,0.6367,9.7,5.8,10.5,0,bed,0
0.001,0.005,0.004,0.3607,0.5145,-0.4476,0.6361,9.5,6.4,12.5,0,bed,0
0.002,-0.008,0.005,0.361,0.5167,-0.4457,0.6355,9.1,5.8,13.3,0,bed,0
0.006,-0.016,0.006,0.3613,0.5189,-0.4437,0.6349,9.6,5.2,13.4,0,bed,0
0.004,-0.024,0.015,0.3615,0.521,-0.4417,0.6345,11.0,4.4,12.6,0,bed,0
0.006,-0.032,0.015,0.3615,0.5229,-0.4396,0.6344,12.4,4.1,11.8,0,bed,0
0.006,-0.036,0.017,0.3612,0.5249,-0.4374,0.6345,13.3,3.8,10.5,0,bed,0
0.003,-0.036,0.015,0.3609,0.5266,-0.4352,0.6347,13.2,3.4,9.2,0,bed,0
0.0,-0.04,0.009,0.3603,0.5282,-0.4333,0.635,12.5,3.0,7.7,0,bed,0
0.004,-0.04,0.01,0.3596,0.5296,-0.4316,0.6354,12.0,2.5,5.9,0,bed,0
0.01,-0.04,0.007,0.3588,0.5307,-0.4301,0.6359,12.1,2.5,4.0,0,bed,0
0.013,-0.046,0.004,0.3577,0.5318,-0.4288,0.6366,12.7,2.0,1.9,0,bed,0
0.018,-0.044,0.003,0.3563,0.5327,-0.4275,0.6375,13.7,2.1,0.0,0,bed,0
0.023,-0.043,-0.008,0.3546,0.5335,-0.4264,0.6385,14.7,2.8,-1.7,0,bed,0
0.023,-0.043,-0.015,0.3525,0.5344,-0.4253,0.6395,16.2,4.0,-3.2,0,bed,0
0.012,-0.051,-0.016,0.3499,0.5356,-0.4243,0.6407,19.4,5.5,-3.9,0,bed,0
0.005,-0.063,-0.022,0.3467,0.5372,-0.4229,0.642,24.8,7.0,-3.8,0,bed,0
0.003,-0.079,-0.018,0.3428,0.5392,-0.4211,0.6436,30.5,8.9,-3.7,0,bed,0
0.014,-0.079,-0.016,0.3382,0.5416,-0.4187,0.6455,35.4,10.9,-4.2,0,bed,0
0.042,-0.087,-0.018,0.333,0.5444,-0.4161,0.6476,39.6,12.3,-5.3,1023,bed,0
0.058,-0.094,-0.021,0.3271,0.5474,-0.4132,0.65,44.8,13.9,-6.4,1023,bed,0
0.067,-0.095,-0.012,0.3203,0.5506,-0.4098,0.6527,50.8,14.6,-7.4,1023,bed,0
0.071,-0.094,-0.014,0.3127,0.5542,-0.4059,0.6558,56.9,15.3,-8.1,1023,bed,0
0.043,-0.092,-0.019,0.3044,0.5582,-0.4013,0.6592,62.1,15.1,-8.3,1023,bed,0
0.009,-0.08,-0.02,0.2957,0.5625,-0.396,0.6627,64.7,14.0,-7.4,1023,bed,0
-0.034,-0.073,-0.029,0.2872,0.5668,-0.3904,0.6661,63.7,11.9,-5.6,1023,bed,0
-0.067,-0.068,-0.032,0.2794,0.5708,-0.3846,0.6693,59.7,9.7,-3.3,1023,bed,0
-0.083,-0.075,-0.042,0.2724,0.5746,-0.379,0.6722,55.3,7.4,-1.4,1023,bed,0
-0.077,-0.071,-0.052,0.2661,0.5779,-0.3738,0.6748,49.3,5.5,-1.3,1023,bed,0
-0.06,-0.072,-0.058,0.2604,0.5806,-0.3693,0.6771,43.4,4.1,-3.4,1023,bed,0
-0.031,-0.067,-0.064,0.2549,0.5828,-0.3658,0.6793,38.7,3.3,-6.8,1023,bed,0
0.0,-0.068,-0.064,0.2493,0.5844,-0.363,0.6814,36.1,2.8,-10.8,1023,bed,0
0.02,-0.057,-0.07,0.2433,0.5857,-0.3609,0.6836,35.9,3.1,-14.6,0,bed,0
0.032,-0.046,-0.061,0.2369,0.5869,-0.3589,0.6859,37.0,3.4,-17.5,0,bed,0
0.044,-0.044,-0.066,0.2301,0.588,-0.357,0.6883,38.7,3.4,-19.5,0,bed,0
0.04,-0.037,-0.066,0.2229,0.589,-0.355,0.6908,41.3,3.3,-20.7,0,bed,0
0.027,-0.027,-0.069,0.2154,0.59,-0.3527,0.6935,43.2,2.6,-21.1,0,bed,0
0.015,-0.017,-0.069,0.2078,0.591,-0.35,0.6963,44.3,1.7,-20.6,0,bed,0
0.007,-0.01,-0.069,0.2006,0.5919,-0.3472,0.6991,42.5,0.2,-19.4,0,bed,0
0.004,-0.006,-0.077,0.1939,0.5926,-0.3445,0.7017,38.6,-0.9,-18.4,0,bed,0
-0.013,-0.002,-0.084,0.1879,0.5931,-0.3422,0.704,33.0,-1.8,-17.6,0,bed,0
-0.043,-0.005,-0.093,0.1826,0.5934,-0.3406,0.7059,27.9,-1.7,-16.5,0,bed,0
-0.07,-0.019,-0.091,0.1779,0.5938,-0.3392,0.7074,25.4,-0.8,-14.8,0,bed,0
-0.068,-0.021,-0.092,0.1735,0.5943,-0.338,0.7087,23.7,0.8,-13.1,0,bed,0
-0.041,-0.034,-0.079,0.1691,0.5952,-0.3369,0.7096,24.0,3.8,-12.2,0,bed,0
0.003,-0.041,-0.067,0.1643,0.5963,-0.3357,0.7104,27.1,7.3,-13.6,0,bed,0
0.054,-0.045,-0.041,0.1582,0.5976,-0.3343,0.7113,33.0,10.7,-16.9,0,bed,0
0.077,-0.04,-0.017,0.1507,0.599,-0.3326,0.7125,41.2,13.4,-22.0,0,bed,0
0.062,-0.037,-0.012,0.1416,0.6004,-0.3304,0.7143,49.7,15.1,-26.9,0,bed,0
0.007,-0.037,-0.005,0.1312,0.6019,-0.3274,0.7163,57.3,16.1,-29.4,0,bed,0
-0.048,-0.019,0.009,0.1201,0.6035,-0.3235,0.7187,62.2,15.6,-29.6,0,bed,0
-0.066,-0.001,0.01,0.109,0.6051,-0.3189,0.7212,61.9,15.0,-28.4,1023,bed,0
-0.05,0.01,0.004,0.0986,0.6066,-0.3144,0.7234,57.0,14.8,-27.0,1023,bed,0
-0.041,0.023,0.009,0.0888,0.6081,-0.3105,0.7251,50.8,15.6,-27.0,1023,bed,0
-0.037,0.016,0.014,0.0796,0.6095,-0.3074,0.7263,45.8,17.4,-27.9,1023,bed,0
-0.056,0.01,0.03,0.0703,0.6109,-0.3046,0.7272,46.8,19.5,-28.3,1023,bed,0
-0.081,0.003,0.029,0.0606,0.6126,-0.3013,0.7281,52.7,21.3,-27.3,1023,bed,0
-0.083,0.016,0.035,0.0503,0.6146,-0.2967,0.7291,60.8,23.0,-25.1,1023,bed,0
-0.062,0.022,0.037,0.0393,0.6169,-0.2908,0.7302,69.4,24.2,-22.8,1023,bed,0
-0.043,0.036,0.039,0.0275,0.6193,-0.2835,0.7315,78.6,25.6,-20.9,1023,bed,0
-0.018,0.041,0.037,0.0151,0.622,-0.2747,0.733,87.1,26.7,-18.6,1023,bed,0
0.016,0.058,0.038,0.002,0.6247,-0.2644,0.7346,95.2,28.0,-15.5,1023,bed,0
0.042,0.062,0.028,-0.0114,0.6276,-0.2528,0.7361,101.8,29.3,-11.5,1023,bed,0
0.065,0.054,0.032,-0.0253,0.6306,-0.2398,0.7376,109.3,30.6,-6.6,1023,bed,0
0.09,0.065,0.017,-0.0394,0.6337,-0.2252,0.7389,116.8,31.1,-1.6,1023,bed,0
0.096,0.067,-0.004,-0.0536,0.6368,-0.2092,0.7401,122.7,31.7,2.8,1023,bed,0
0.108,0.061,-0.02,-0.0679,0.6398,-0.192,0.7409,127.3,32.2,7.2,0,bed,0
0.107,0.059,-0.023,-0.0821,0.6428,-0.1737,0.7414,130.4,32.9,11.0,0,bed,0
0.122,0.046,-0.035,-0.096,0.6456,-0.1548,0.7415,130.8,33.4,14.1,0,bed,0
0.135,0.041,-0.053,-0.1096,0.6483,-0.1358,0.741,128.9,34.7,15.8,0,bed,0
0.128,0.024,-0.056,-0.1228,0.6509,-0.117,0.7398,126.4,35.3,16.3,0,bed,0
0.106,0.019,-0.063,-0.1358,0.6534,-0.0984,0.7381,124.7,35.8,16.2,0,bed,0
0.058,0.008,-0.079,-0.1483,0.6557,-0.08,0.7358,120.7,35.9,16.0,0,bed,0
0.0,0.004,-0.103,-0.1602,0.658,-0.0621,0.733,115.6,36.2,16.6,0,bed,0
-0.047,-0.001,-0.117,-0.1709,0.6605,-0.0448,0.7296,108.7,37.4,18.0,0,bed,0
-0.102,-0.026,-0.117,-0.1808,0.6631,-0.0279,0.7257,105.0,39.1,20.1,0,bed,0
-0.136,-0.031,-0.135,-0.1903,0.6657,-0.0109,0.7213,106.8,40.0,21.6,0,bed,0
-0.136,-0.021,-0.148,-0.2,0.6681,0.0068,0.7165,113.7,40.3,22.7,0,bed,0
-0.103,0.007,-0.144,-0.2106,0.6698,0.0258,0.7115,122.5,39.2,21.6,0,bed,0
-0.062,0.047,-0.147,-0.2225,0.6697,0.0452,0.707,128.5,36.6,19.0,0,bed,0
-0.023,0.064,-0.17,-0.2352,0.6687,0.0647,0.7022,130.7,34.7,15.2,0,bed,0
-0.029,0.081,-0.183,-0.2484,0.6671,0.0835,0.6972,129.3,31.8,11.0,0,bed,0
-0.012,0.124,-0.18,-0.2616,0.6649,0.1014,0.6921,126.2,28.1,8.5,1023,bed,0
-0.019,0.153,-0.16,-0.2743,0.6622,0.1182,0.6871,116.8,23.4,6.5,1023,bed,0
-0.027,0.162,-0.156,-0.2859,0.6591,0.133,0.6826,103.3,17.8,5.1,1023,bed,0
-0.016,0.162,-0.162,-0.2959,0.6559,0.1456,0.6788,87.6,12.3,3.9,1023,bed,0
0.001,0.167,-0.182,-0.3042,0.6529,0.1558,0.6758,70.6,7.9,2.7,1023,bed,0
0.014,0.142,-0.191,-0.311,0.6501,0.1639,0.6734,59.7,4.9,1.8,1023,bed,0
0.026,0.14,-0.185,-0.3173,0.6473,0.1712,0.6714,57.9,2.9,2.5,1023,bed,0
0.053,0.144,-0.171,-0.3235,0.6442,0.1786,0.6695,60.2,2.0,3.4,1023,bed,0
0.098,0.162,-0.146,-0.3299,0.6408,0.1863,0.6676,62.0,1.4,4.6,1023,bed,0
0.142,0.169,-0.142,-0.3361,0.6371,0.1942,0.6657,61.3,1.1,6.4,1023,bed,0
0.168,0.17,-0.134,-0.3419,0.6335,0.2021,0.6639,59.4,2.0,7.9,1023,bed,0
0.159,0.156,-0.111,-0.3472,0.6301,0.2099,0.662,55.6,3.8,8.7,1023,bed,0
0.153,0.106,-0.094,-0.3517,0.6271,0.2176,0.66,53.0,6.7,9.8,1023,bed,0
0.129,0.038,-0.061,-0.3556,0.6247,0.2257,0.6574,54.4,8.0,8.4,1023,bed,0
0.115,-0.02,-0.051,-0.361,0.622,0.2336,0.6542,64.1,8.2,2.7,1023,bed,0
0.087,-0.039,-0.069,-0.3687,0.619,0.2419,0.6497,78.7,8.6,-6.1,0,bed,0
0.062,-0.036,-0.077,-0.379,0.6155,0.2508,0.6437,92.9,8.3,-15.1,0,bed,0
0.053,-0.034,-0.078,-0.3915,0.6112,0.2601,0.6366,103.3,5.9,-22.7,0,bed,0
0.043,0.002,-0.083,-0.4053,0.6062,0.2695,0.6288,107.7,3.4,-28.8,0,bed,0
0.023,0.041,-0.068,-0.4195,0.6007,0.2781,0.621,102.8,-1.3,-34.9,0,bed,0
-0.034,0.01,-0.085,-0.4336,0.5952,0.2845,0.6136,90.4,-7.5,-42.8,0,bed,0
-0.093,0.027,-0.134,-0.4474,0.5909,0.2883,0.6061,80.5,-9.3,-53.3,0,bed,0
-0.117,0.097,-0.169,-0.4619,0.5869,0.2895,0.5985,71.9,-7.9,-64.0,0,bed,0
-0.125,0.129,-0.157,-0.4762,0.5843,0.2889,0.5901,61.2,-5.2,-73.5,0,bed,0
-0.137,0.134,-0.113,-0.4899,0.583,0.2863,0.5813,50.6,-4.1,-79.2,0,bed,0
-0.18,0.106,-0.074,-0.503,0.5824,0.2824,0.5725,44.9,-6.3,-80.7,0,bed,0
-0.192,0.162,-0.072,-0.5157,0.5817,0.2777,0.5642,39.3,-10.2,-78.7,0,bed,0
-0.207,0.204,-0.062,-0.5273,0.5812,0.2721,0.5567,30.2,-13.2,-76.7,0,bed,0
-0.218,0.186,-0.038,-0.5382,0.5807,0.2657,0.5499,25.7,-17.2,-75.0,0,bed,0
-0.237,0.165,-0.047,-0.5486,0.5798,0.2587,0.5438,24.7,-22.6,-72.3,0,bed,0
-0.275,0.182,-0.011,-0.559,0.5781,0.2513,0.5385,23.6,-29.8,-70.5,1023,bed,0
-0.282,0.193,-0.036,-0.5693,0.5757,0.2429,0.5341,21.9,-38.8,-69.6,1023,bed,0
-0.3,0.255,-0.07,-0.5794,0.5725,0.2334,0.5308,15.8,-48.2,-67.6,1023,bed,0
-0.309,0.297,-0.106,-0.5886,0.5693,0.2224,0.5289,3.5,-55.8,-64.0,1023,bed,0
-0.347,0.324,-0.076,-0.5958,0.5667,0.2096,0.5288,-15.8,-64.5,-57.3,1023,bed,0
-0.327,0.252,-0.076,-0.6007,0.5648,0.1949,0.531,-30.6,-72.6,-48.3,1023,bed,0
-0.283,0.358,-0.072,-0.6036,0.5626,0.1797,0.5354,-38.7,-80.2,-32.1,1023,bed,0
-0.226,0.411,-0.094,-0.6038,0.5604,0.1643,0.5424,-51.6,-85.4,-16.1,1023,bed,0
-0.147,0.433,-0.129,-0.6013,0.5582,0.1488,0.5518,-62.2,-90.3,0.5,1023,bed,0
-0.099,0.41,-0.171,-0.5961,0.5558,0.1337,0.5636,-69.7,-94.4,19.8,1023,bed,0
-0.057,0.367,-0.188,-0.5885,0.5528,0.1199,0.5775,-66.1,-95.9,41.8,1023,bed,0
-0.048,0.368,-0.201,-0.5792,0.5479,0.1092,0.5935,-53.6,-97.6,64.6,1023,bed,0
-0.018,0.359,-0.26,-0.5683,0.5411,0.1016,0.6114,-43.7,-98.0,87.4,1023,bed,0
-0.012,0.302,-0.254,-0.5557,0.5325,0.0971,0.6309,-31.4,-98.2,107.4,1023,bed,0
-0.054,0.174,-0.177,-0.542,0.5221,0.0955,0.6514,-21.6,-95.9,121.5,1023,bed,0
-0.121,-0.007,-0.199,-0.5281,0.5101,0.0971,0.6717,6.9,-89.4,130.2,1023,bed,0
-0.122,-0.027,-0.203,-0.5155,0.4956,0.1039,0.6911,31.9,-80.8,138.2,1023,bed,0
-0.134,-0.095,-0.129,-0.5021,0.4813,0.1122,0.7096,16.3,-73.2,139.7,1023,bed,0
-0.113,-0.092,-0.093,-0.4864,0.4695,0.1177,0.7273,-14.6,-68.2,134.9,1023,bed,0
-0.092,-0.238,-0.13,-0.4685,0.461,0.1184,0.7441,-44.2,-64.9,122.9,0,bed,0
-0.063,-0.39,-0.094,-0.451,0.4541,0.1165,0.7594,-44.8,-60.5,108.8,0,bed,0
-0.024,-0.433,-0.204,-0.4354,0.4476,0.1145,0.7725,-35.8,-53.3,92.7,0,bed,0
0.032,-0.485,-0.292,-0.423,0.4418,0.1136,0.7828,-20.8,-39.9,71.7,0,bed,0
0.057,-0.449,-0.162,-0.4143,0.4367,0.1141,0.7902,-6.7,-31.1,52.9,0,bed,0
0.103,-0.429,-0.062,-0.4083,0.4325,0.1143,0.7956,-10.6,-26.1,34.8,0,bed,0
0.204,-0.372,-0.135,-0.4036,0.43,0.1122,0.7997,-23.6,-19.6,20.9,0,bed,0
0.295,-0.403,-0.218,-0.3996,0.4299,0.1079,0.8023,-36.0,-8.2,7.8,0,bed,0
0.358,-0.417,-0.286,-0.3967,0.4324,0.1027,0.8031,-35.9,6.5,-4.9,0,bed,0
0.272,-0.09,-0.133,-0.3951,0.4368,0.0979,0.8021,-45.1,17.8,-13.7,0,bed,0
-0.13,-0.336,0.227,-0.3902,0.4473,0.082,0.8005,-159.5,16.1,-40.2,0,bed,0
-0.559,-1.152,0.671,-0.3862,0.4565,0.0574,0.7994,-101.1,-31.8,-58.0,0,bed,0
-0.256,-0.4,0.16,-0.3918,0.4531,0.0444,0.7994,-5.2,-49.7,-63.4,0,bed,0
-0.052,-0.208,-0.125,-0.4011,0.4479,0.0351,0.7982,-2.1,-36.1,-70.9,0,bed,0
0.0,0.114,-0.105,-0.412,0.4437,0.0292,0.7952,19.7,-22.6,-71.0,0,bed,0
-0.041,0.106,0.017,-0.4226,0.4407,0.0243,0.7914,4.3,-15.7,-70.3,0,bed,0
-0.07,0.237,0.033,-0.4313,0.4388,0.0182,0.788,-13.5,-14.5,-60.5,1023,bed,0
-0.032,-0.108,0.047,-0.4386,0.4381,0.0093,0.7845,-15.8,-20.5,-63.2,1023,bed,0
0.048,-0.052,-0.015,-0.4466,0.4358,0.0003,0.7813,-10.5,-27.4,-62.2,1023,bed,0
-0.017,-0.076,-0.07,-0.4543,0.4328,-0.0083,0.7785,-8.7,-31.0,-59.8,1023,bed,0
-0.063,-0.124,-0.068,-0.4614,0.43,-0.0174,0.7758,-16.4,-33.8,-60.6,1023,bed,0
-0.045,-0.083,-0.05,-0.4685,0.4262,-0.0268,0.7732,-8.6,-36.1,-62.6,1023,bed,0
-0.055,0.026,-0.003,-0.4765,0.4215,-0.0348,0.7706,1.7,-38.5,-64.0,1023,bed,0
0.122,0.734,-0.3,-0.485,0.4158,-0.0423,0.7681,-5.3,-34.9,-68.5,1023,bed,0
0.313,-0.083,0.041,-0.496,0.4109,-0.0521,0.7631,12.2,-30.9,-83.5,0,bed,0
-0.267,-0.125,0.347,-0.5053,0.4056,-0.0588,0.7593,-0.5,-32.8,-57.6,0,bed,0
-0.145,0.129,0.039,-0.5112,0.4001,-0.0669,0.7576,-17.0,-48.4,-55.1,0,bed,0
0.027,0.316,-0.227,-0.5155,0.3955,-0.0777,0.7561,-31.6,-41.4,-43.9,0,bed,0
-0.134,-0.042,-0.15,-0.5182,0.393,-0.0878,0.7544,-28.1,-32.1,-39.5,0,bed,0
-0.087,-0.151,-0.1,-0.5217,0.3906,-0.0962,0.7522,-15.5,-25.1,-44.2,0,bed,0
0.013,-0.155,-0.01,-0.5272,0.3875,-0.1021,0.7492,5.7,-18.2,-49.2,0,bed,0
0.044,-0.042,0.134,-0.5348,0.3828,-0.106,0.7457,19.4,-17.1,-51.9,0,bed,0
0.054,0.096,0.137,-0.5421,0.3778,-0.1091,0.7425,8.0,-19.2,-48.2,0,bed,0
0.007,-0.02,0.081,-0.5477,0.374,-0.114,0.7396,-4.6,-20.9,-44.0,0,bed,0
-0.001,-0.048,0.043,-0.5529,0.3701,-0.1193,0.7368,4.1,-24.0,-42.8,0,bed,0
-0.01,0.042,0.002,-0.5584,0.3652,-0.1235,0.7345,10.2,-25.8,-41.5,0,bed,0
-0.023,0.106,-0.062,-0.5636,0.3602,-0.1272,0.7323,2.9,-25.5,-41.5,0,bed,0
-0.077,0.072,-0.076,-0.5677,0.3571,-0.1318,0.7298,-6.6,-23.1,-41.8,0,bed,0
-0.119,0.039,-0.017,-0.572,0.354,-0.1368,0.7271,-2.3,-25.9,-43.5,0,bed,0
-0.039,0.095,-0.105,-0.5763,0.3504,-0.1418,0.7244,-3.0,-27.7,-44.0,0,bed,0
0.031,0.12,-0.095,-0.5809,0.3468,-0.1474,0.7213,-4.8,-22.6,-43.4,0,bed,0
-0.045,0.113,0.01,-0.5856,0.3438,-0.1527,0.7179,-5.2,-17.7,-45.6,0,bed,0
0.023,0.143,0.023,-0.5909,0.3411,-0.1577,0.7137,-5.4,-11.6,-46.1,0,bed,0
0.096,0.175,0.094,-0.5958,0.3398,-0.1626,0.7092,-16.2,-5.1,-42.8,0,bed,0
-0.025,-0.154,0.155,-0.5994,0.3404,-0.1681,0.7045,-23.9,-1.5,-40.0,0,bed,0
0.034,-0.148,0.012,-0.6033,0.3413,-0.1735,0.6995,-12.8,0.8,-40.8,0,bed,0
0.071,-0.072,-0.011,-0.6079,0.3413,-0.1773,0.6945,-2.7,5.6,-37.0,1023,bed,0
-0.058,-0.053,-0.011,-0.6121,0.3412,-0.1791,0.6904,0.5,4.3,-32.9,1023,bed,0
-0.066,-0.206,0.006,-0.6161,0.3406,-0.1803,0.6868,6.0,-0.1,-32.8,1023,bed,0
0.05,0.359,-0.222,-0.6201,0.3396,-0.1814,0.6835,5.7,6.1,-34.0,1023,bed,0
-0.098,-0.371,0.175,-0.6244,0.3392,-0.1829,0.6793,6.6,-0.1,-28.0,1023,bed,0
-0.168,-0.184,0.07,-0.6274,0.3367,-0.1835,0.6776,16.5,-10.7,-26.1,1023,bed,0
-0.048,0.085,-0.04,-0.6307,0.3324,-0.1833,0.6767,16.7,-13.2,-20.8,1023,bed,0
-0.087,0.045,-0.016,-0.633,0.3285,-0.1834,0.6764,12.2,-15.7,-15.5,1023,bed,0
-0.085,-0.074,-0.071,-0.6345,0.3258,-0.1844,0.676,9.1,-14.7,-15.1,0,bed,0
-0.08,-0.07,-0.056,-0.6369,0.322,-0.1849,0.6756,24.6,-13.8,-16.6,0,bed,0
-0.057,0.044,-0.036,-0.6398,0.3172,-0.1837,0.6754,32.7,-14.7,-18.5,0,bed,0
-0.018,0.143,-0.022,-0.6433,0.3109,-0.1818,0.6755,31.9,-16.1,-19.2,0,bed,0
0.012,0.141,0.036,-0.6468,0.3042,-0.1804,0.6756,26.6,-17.4,-18.1,0,bed,0
0.01,0.04,0.039,-0.6493,0.2986,-0.1805,0.6756,14.6,-18.6,-11.6,0,bed,0
-0.108,-0.157,0.008,-0.6502,0.2949,-0.1814,0.6761,16.8,-18.9,-4.2,0,bed,0
-0.077,-0.135,-0.039,-0.6515,0.2893,-0.1805,0.6776,38.3,-20.0,-5.1,0,bed,0
0.131,0.09,-0.103,-0.6541,0.282,-0.1785,0.6786,46.5,-17.1,-9.4,0,bed,0
0.127,0.086,-0.046,-0.6567,0.2753,-0.1757,0.6796,39.6,-12.4,-6.7,0,bed,0
-0.088,-0.002,0.062,-0.6583,0.2691,-0.1724,0.6814,31.0,-14.3,1.6,0,bed,0
-0.198,0.007,0.028,-0.6588,0.2643,-0.1705,0.6833,23.7,-16.8,3.2,0,bed,0
-0.105,-0.076,0.012,-0.6592,0.2593,-0.1698,0.6851,29.7,-23.3,-0.9,0,bed,0
0.142,0.02,-0.05,-0.6606,0.2525,-0.1693,0.6864,32.5,-23.6,-9.2,0,bed,0
0.088,0.033,-0.046,-0.6626,0.2462,-0.1688,0.6868,25.1,-18.3,-12.6,0,bed,0
-0.04,0.119,0.03,-0.6642,0.2406,-0.1684,0.6873,18.5,-19.7,-3.6,0,bed,0
-0.078,0.178,0.107,-0.6635,0.2376,-0.1703,0.6886,-12.9,-23.8,5.5,0,bed,0
0.022,0.032,0.044,-0.661,0.2375,-0.1761,0.6896,-36.0,-27.4,3.5,0,bed,0
0.069,0.039,-0.016,-0.6586,0.2381,-0.184,0.6895,-41.7,-24.7,-2.1,0,bed,0
0.043,0.045,0.004,-0.6569,0.2398,-0.1921,0.6884,-42.3,-17.7,-5.3,0,bed,0
-0.019,-0.008,0.056,-0.6553,0.2416,-0.1983,0.6876,-27.5,-17.6,-0.8,0,bed,0
-0.105,0.09,-0.004,-0.6534,0.242,-0.2025,0.688,-21.6,-19.8,5.0,0,bed,0
-0.19,0.14,-0.191,-0.6506,0.2439,-0.2083,0.6882,-45.6,-13.8,5.4,0,bed,0
-0.073,-0.063,-0.211,-0.6477,0.2487,-0.2149,0.6872,-43.1,-1.5,3.7,0,bed,0
0.046,-0.123,-0.05,-0.6462,0.2527,-0.2177,0.6863,-7.3,10.5,4.8,1023,bed,0
0.069,-0.11,0.178,-0.6463,0.2534,-0.216,0.6865,14.7,9.8,6.5,1023,bed,0
0.211,-0.044,0.208,-0.6468,0.2517,-0.2134,0.6875,14.9,-1.0,3.2,1023,bed,0
0.235,0.035,0.04,-0.6463,0.2511,-0.2135,0.6881,-9.8,-5.6,4.0,1023,bed,0
0.146,-0.019,-0.059,-0.6445,0.2529,-0.2164,0.6882,-27.2,-6.0,6.6,1023,bed,0
0.08,-0.054,-0.088,-0.6422,0.2558,-0.2201,0.6882,-28.1,-4.9,7.4,1023,bed,0
0.081,-0.036,-0.101,-0.6399,0.2587,-0.224,0.6879,-29.6,-4.2,4.7,1023,bed,0
-0.01,-0.073,-0.126,-0.6381,0.2627,-0.2292,0.6864,-36.1,-2.7,-4.0,1023,bed,0
-0.039,-0.117,-0.118,-0.6373,0.2662,-0.2341,0.6841,-21.2,-2.7,-11.4,1023,bed,0
-0.164,0.002,-0.09,-0.6383,0.2665,-0.2365,0.6823,-4.3,-5.1,-16.1,0,bed,0
-0.208,0.137,-0.086,-0.6398,0.2656,-0.2386,0.6805,-9.1,-7.1,-17.1,0,bed,0
-0.233,0.255,-0.044,-0.6407,0.266,-0.2424,0.6781,-28.8,-7.7,-18.4,0,bed,0
-0.155,0.231,-0.02,-0.6406,0.2692,-0.2493,0.6744,-54.1,-6.0,-19.2,0,bed,0
-0.073,0.159,0.019,-0.6396,0.2747,-0.2577,0.6699,-63.3,-3.0,-16.1,0,bed,0
-0.048,0.107,0.075,-0.6384,0.2799,-0.2649,0.6662,-50.8,-3.2,-10.9,0,bed,0
-0.051,0.101,0.052,-0.6371,0.2834,-0.27,0.6639,-34.0,-7.1,-5.8,0,bed,0
-0.056,0.122,0.015,-0.6357,0.2851,-0.2734,0.6631,-26.4,-9.5,0.0,0,bed,0
-0.027,0.078,0.054,-0.6335,0.2871,-0.2768,0.6629,-33.3,-10.2,6.0,0,bed,0
0.013,0.0,0.1,-0.6304,0.2897,-0.2814,0.6628,-39.0,-12.4,8.2,0,bed,0
-0.023,-0.062,0.071,-0.6268,0.2928,-0.2868,0.6625,-41.2,-12.7,8.5,0,bed,0
-0.044,-0.073,0.014,-0.6232,0.2962,-0.2926,0.6619,-38.0,-13.2,4.0,0,bed,0
-0.072,-0.011,-0.039,-0.62,0.2996,-0.2982,0.6608,-39.0,-12.8,0.9,0,bed,0
-0.028,-0.022,0.0,-0.6172,0.3029,-0.3039,0.6594,-38.3,-11.2,-2.5,0,bed,0
-0.017,-0.048,0.0,-0.6149,0.3056,-0.3095,0.6576,-33.7,-10.6,-3.5,0,bed,0
-0.048,-0.006,-0.057,-0.613,0.3076,-0.3144,0.6561,-25.3,-11.1,-4.8,0,bed,0
-0.139,0.033,-0.085,-0.6118,0.3085,-0.3181,0.6551,-14.8,-12.1,-7.2,0,bed,0
-0.245,0.183,-0.097,-0.6109,0.3085,-0.3217,0.6542,-23.4,-11.5,-3.9,0,bed,0
-0.025,0.033,-0.085,-0.6096,0.3098,-0.326,0.6527,-20.1,-10.3,-8.1,0,bed,0
-0.015,0.032,0.016,-0.6094,0.3095,-0.3291,0.6515,-7.4,-8.1,-7.3,1023,bed,0
-0.046,-0.06,0.024,-0.6094,0.3086,-0.331,0.6509,-9.8,-6.3,-4.8,1023,bed,0
0.003,-0.223,0.069,-0.6082,0.3092,-0.333,0.6507,-16.4,-4.9,7.7,1023,bed,0
-0.01,-0.597,0.024,-0.6061,0.3101,-0.3335,0.652,15.6,-5.3,11.8,1023,bed,0
-0.161,-0.629,0.057,-0.6073,0.305,-0.3282,0.656,75.7,-6.1,2.4,1023,bed,0
0.18,0.2,-0.025,-0.6114,0.2947,-0.3184,0.6617,87.6,-4.9,3.5,1023,bed,0
0.317,0.196,0.021,-0.613,0.2889,-0.3102,0.6666,32.1,6.5,19.8,1023,bed,0
0.289,-0.142,0.097,-0.6119,0.288,-0.3038,0.671,46.3,13.1,36.2,1023,bed,0
0.124,-0.304,0.197,-0.6119,0.2837,-0.2936,0.6773,73.9,2.5,26.4,1023,bed,0
-0.292,-0.002,0.06,-0.6122,0.2773,-0.2844,0.6836,54.9,-5.2,20.2,1023,bed,0
-0.015,0.408,-0.262,-0.6119,0.2729,-0.279,0.6878,30.6,-2.4,15.6,1023,bed,0
0.063,0.377,-0.138,-0.6118,0.271,-0.2757,0.69,15.8,3.1,7.6,1023,bed,0
0.002,0.033,0.063,-0.6122,0.2694,-0.2736,0.6911,11.2,-3.2,-1.7,1023,bed,0
-0.041,-0.098,0.068,-0.6137,0.2667,-0.2733,0.6909,13.3,-11.6,-19.4,1023,bed,0
-0.038,0.159,-0.045,-0.6161,0.2632,-0.2743,0.6897,0.5,-13.4,-22.0,1023,bed,0
-0.009,0.312,-0.061,-0.617,0.2619,-0.2773,0.6882,-28.4,-10.7,-8.7,1023,bed,0
-0.054,0.004,-0.012,-0.6148,0.2654,-0.2831,0.6865,-48.1,-6.9,3.6,1023,bed,0
-0.039,-0.362,0.06,-0.6116,0.2701,-0.289,0.685,-32.9,-7.9,2.6,0,bed,0
-0.006,-0.241,-0.087,-0.6105,0.271,-0.2924,0.6842,-6.1,-8.9,-4.6,0,bed,0
-0.033,0.131,-0.145,-0.6103,0.27,-0.2934,0.6844,1.4,-9.5,2.0,0,bed,0
-0.022,0.014,-0.139,-0.6086,0.2704,-0.2946,0.6853,-13.8,-6.3,10.4,0,bed,0
0.048,-0.244,-0.076,-0.6069,0.271,-0.2955,0.6861,10.1,-3.6,6.1,0,bed,0
0.053,-0.22,-0.061,-0.6075,0.2684,-0.2927,0.6877,35.6,-1.7,0.5,0,bed,0
0.017,-0.08,-0.063,-0.6093,0.264,-0.2885,0.6896,46.2,-1.6,-0.7,0,bed,0
0.011,0.035,-0.046,-0.6113,0.2591,-0.2833,0.6919,47.7,0.6,1.6,0,bed,0
-0.021,0.06,0.029,-0.6131,0.2545,-0.2772,0.6945,40.8,2.4,3.7,0,bed,0
-0.086,0.07,0.034,-0.6144,0.2512,-0.2717,0.6967,32.2,3.4,3.2,0,bed,0
-0.085,0.059,0.032,-0.6156,0.2485,-0.2663,0.6987,34.8,4.5,2.5,0,bed,0
-0.042,0.116,0.015,-0.6171,0.2452,-0.2605,0.7007,32.1,3.9,1.2,0,bed,0
-0.005,0.154,-0.017,-0.6186,0.2423,-0.2559,0.7021,20.8,2.4,-1.9,0,bed,0
0.104,0.114,-0.001,-0.6201,0.2398,-0.253,0.7027,20.2,4.5,-2.2,0,bed,0
0.16,0.11,0.091,-0.6215,0.2379,-0.2495,0.7033,24.7,5.5,-1.9,1023,bed,0
0.209,0.098,0.162,-0.623,0.2359,-0.2464,0.7038,18.6,1.6,-0.6,1023,bed,0
0.128,0.126,0.105,-0.6229,0.2351,-0.2457,0.7044,-6.2,-3.7,4.6,1023,bed,0
0.064,0.072,0.032,-0.6214,0.2364,-0.2478,0.7046,-22.9,-3.1,8.2,1023,bed,0
0.069,-0.048,0.051,-0.6193,0.2384,-0.2508,0.7046,-21.1,-1.6,10.5,1023,bed,0
0.064,-0.044,0.063,-0.6173,0.2399,-0.253,0.7051,-13.6,-3.6,11.8,1023,bed,0
0.091,0.028,-0.007,-0.615,0.2409,-0.2552,0.7059,-19.2,-5.8,15.9,1023,bed,0
0.061,-0.01,-0.038,-0.6119,0.2427,-0.2583,0.7069,-21.2,-5.1,18.3,1023,bed,0
0.048,0.041,-0.039,-0.6087,0.2447,-0.2609,0.708,-16.9,-4.3,20.1,1023,bed,0
0.044,-0.031,0.006,-0.6056,0.2468,-0.2629,0.7093,-15.4,-3.5,15.0,1023,bed,0
0.14,0.101,-0.057,-0.6033,0.2481,-0.2644,0.7102,-9.2,-3.0,16.2,1023,bed,0
0.07,0.148,-0.097,-0.6001,0.2505,-0.2644,0.7121,-10.8,7.9,27.9,1023,bed,0
-0.091,0.01,-0.007,-0.5967,0.254,-0.2633,0.714,-6.9,9.5,25.6,1023,bed,0
-0.09,0.016,-0.064,-0.594,0.2557,-0.2611,0.7165,18.5,3.7,27.0,1023,bed,0
-0.244,0.178,-0.093,-0.591,0.2569,-0.2574,0.7199,-3.3,9.5,29.2,1023,bed,0
-0.248,0.137,-0.209,-0.5878,0.2609,-0.2575,0.721,-25.3,10.3,19.8,1023,bed,0
-0.264,0.021,-0.177,-0.5847,0.2653,-0.2587,0.7216,-15.6,5.9,19.8,0,bed,0
-0.173,0.196,-0.092,-0.5818,0.2678,-0.2584,0.7231,-12.3,4.9,21.3,0,bed,0
-0.208,0.048,-0.052,-0.5787,0.2718,-0.2606,0.7233,-38.1,2.5,8.4,0,bed,0
-0.171,-0.037,-0.038,-0.5768,0.2761,-0.266,0.7212,-42.2,-1.2,-7.7,0,bed,0
-0.102,-0.003,0.005,-0.5759,0.2795,-0.2712,0.7186,-35.9,-4.0,-12.0,0,bed,0
-0.044,0.001,0.06,-0.5754,0.2822,-0.2765,0.716,-38.0,-7.5,-15.6,0,bed,0
0.012,0.077,0.069,-0.5747,0.2847,-0.2828,0.7131,-53.0,-7.5,-11.2,0,bed,0
0.029,-0.101,0.053,-0.5725,0.2891,-0.2912,0.7098,-65.0,-6.1,-5.0,0,bed,0
0.074,-0.217,0.048,-0.5698,0.294,-0.2999,0.7062,-48.9,-3.6,-4.0,0,bed,0
0.083,-0.131,0.007,-0.5682,0.2974,-0.3065,0.7033,-35.3,-3.4,-5.2,0,bed,0
0.072,-0.005,-0.058,-0.5669,0.2999,-0.3122,0.7007,-34.9,-3.6,-4.6,0,bed,0
0.063,0.033,-0.068,-0.5655,0.3026,-0.3181,0.6981,-39.9,-4.6,-5.4,0,bed,0
0.016,-0.026,-0.087,-0.5639,0.3057,-0.3245,0.695,-38.4,-4.8,-9.8,0,bed,0
-0.045,0.005,-0.084,-0.563,0.3085,-0.3307,0.6916,-36.6,-6.6,-17.7,0,bed,0
-0.088,0.015,-0.098,-0.5632,0.31,-0.3371,0.6876,-33.2,-10.2,-28.9,0,bed,0
-0.151,-0.009,-0.106,-0.5652,0.3094,-0.3436,0.6831,-23.7,-12.7,-42.2,0,bed,0
-0.234,0.049,-0.097,-0.569,0.3066,-0.3495,0.6781,-14.1,-12.6,-52.2,1023,bed,0
0.073,0.063,0.09,-0.5738,0.3035,-0.3546,0.6729,-13.8,-5.6,-46.9,1023,bed,0
0.17,-0.231,0.274,-0.5763,0.3037,-0.3583,0.6687,-24.8,5.8,-10.8,1023,bed,0
-0.039,-0.389,0.109,-0.5748,0.308,-0.3614,0.6663,-35.6,5.8,6.2,1023,bed,0
-0.1,0.06,-0.034,-0.5721,0.3138,-0.366,0.6634,-56.7,4.0,-5.3,1023,bed,0
-0.002,0.248,-0.09,-0.5699,0.32,-0.3738,0.658,-73.7,0.0,-18.9,1023,bed,0
0.053,0.311,-0.149,-0.5683,0.3262,-0.3842,0.6503,-85.1,3.2,-25.6,1023,bed,0
0.094,0.307,-0.132,-0.5672,0.333,-0.395,0.6412,-84.8,8.8,-25.0,1023,bed,0
0.066,0.166,-0.037,-0.5657,0.3402,-0.4044,0.6329,-76.2,10.7,-13.0,1023,bed,0
0.053,0.142,0.04,-0.5629,0.3474,-0.4115,0.6268,-71.7,9.7,3.4,1023,bed,0
-0.04,-0.021,0.144,-0.5586,0.3553,-0.4174,0.6224,-69.7,5.7,13.1,1023,bed,0
-0.044,-0.146,0.139,-0.5533,0.3622,-0.4221,0.6199,-50.8,-2.4,16.4,1023,bed,0
-0.05,-0.185,0.059,-0.5487,0.3672,-0.4258,0.6186,-39.2,-4.3,11.0,1023,bed,0
-0.035,-0.183,0.046,-0.5446,0.3716,-0.4306,0.6162,-51.9,-5.6,1.5,1023,bed,0
-0.012,-0.021,-0.011,-0.5399,0.377,-0.438,0.6118,-73.0,-7.3,-3.0,1023,bed,0
-0.006,0.106,-0.058,-0.5342,0.3835,-0.4476,0.6057,-83.0,-10.3,-4.8,1023,bed,0
-0.002,0.104,-0.056,-0.5283,0.3894,-0.458,0.5994,-80.5,-13.2,-3.9,0,bed,0
-0.017,0.056,-0.007,-0.5213,0.3954,-0.4679,0.5939,-83.5,-17.6,4.3,0,bed,0
-0.025,0.069,0.021,-0.5125,0.4026,-0.478,0.5887,-100.2,-17.2,14.0,0,bed,0
-0.029,-0.073,0.014,-0.502,0.4116,-0.489,0.5825,-105.5,-16.2,14.1,0,bed,0
-0.013,-0.172,-0.02,-0.4923,0.4198,-0.4996,0.5759,-92.4,-13.4,5.6,0,bed,0
0.003,-0.129,-0.053,-0.4846,0.4263,-0.5091,0.5693,-76.4,-9.5,0.0,0,bed,0
0.015,-0.059,-0.062,-0.4787,0.4313,-0.5169,0.5634,-58.3,-7.1,-1.0,0,bed,0
0.01,-0.011,-0.069,-0.4743,0.4349,-0.5226,0.5591,-38.7,-5.1,1.2,0,bed,0
0.0,-0.003,-0.067,-0.4711,0.4375,-0.526,0.5566,-22.7,-3.7,4.2,0,bed,0
-0.014,0.0,-0.067,-0.4686,0.4394,-0.528,0.5554,-13.0,-3.5,5.8,0,bed,0
-0.02,-0.031,-0.058,-0.4666,0.4408,-0.529,0.555,-6.5,-2.7,4.4,0,bed,0
-0.027,-0.062,-0.072,-0.4656,0.4415,-0.5295,0.5547,-0.9,-1.0,0.3,0,bed,0
-0.014,-0.038,-0.056,-0.4655,0.4416,-0.5296,0.5547,7.4,0.7,-0.6,0,bed,0
-0.017,0.009,-0.026,-0.4664,0.441,-0.5284,0.5555,15.8,1.7,0.1,0,bed,0
-0.006,0.008,-0.018,-0.4678,0.4399,-0.5265,0.557,21.3,3.1,1.0,0,bed,0
-0.005,-0.006,-0.011,-0.4697,0.4386,-0.5239,0.5589,24.7,4.0,1.5,0,bed,0
-0.002,-0.007,-0.007,-0.4718,0.4371,-0.5209,0.5611,26.7,4.4,2.1,0,bed,0
-0.004,0.0,0.001,-0.474,0.4354,-0.5178,0.5634,27.6,4.3,1.3,0,bed,0
-0.011,0.012,0.011,-0.4763,0.4338,-0.5147,0.5656,25.0,3.3,0.7,1023,bed,0
-0.018,0.025,0.013,-0.4782,0.4322,-0.512,0.5676,20.8,2.8,0.0,1023,bed,0
-0.019,0.028,0.017,-0.4798,0.4309,-0.5098,0.5693,16.2,1.7,-0.1,1023,bed,0
-0.014,0.025,0.011,-0.481,0.4299,-0.508,0.5706,11.8,1.3,0.0,1023,bed,0
-0.009,0.024,0.009,-0.4818,0.4292,-0.5068,0.5715,7.7,0.5,0.3,1023,bed,0
-0.01,0.021,0.011,-0.4822,0.4288,-0.5061,0.5721,3.2,0.2,0.1,1023,bed,0
-0.003,0.017,0.007,-0.4823,0.4287,-0.5059,0.5723,-0.6,-0.1,0.0,1023,bed,0
-0.001,0.013,0.004,-0.4821,0.4288,-0.506,0.5722,-3.0,-0.5,0.2,1023,bed,0
-0.009,0.009,-0.006,-0.4817,0.4291,-0.5064,0.572,-3.6,-0.8,0.3,1023,bed,0
-0.008,0.004,-0.005,-0.4813,0.4294,-0.5068,0.5718,-3.1,-0.5,0.3,1023,bed,0
-0.02,0.018,-0.007,-0.481,0.4297,-0.507,0.5717,-2.2,-0.7,0.4,1023,bed,0
-0.016,-0.002,-0.008,-0.4806,0.43,-0.5072,0.5715,-1.6,-0.2,0.4,1023,bed,0
-0.005,-0.004,-0.012,-0.4804,0.4302,-0.5074,0.5714,-1.0,-0.1,0.0,1023,bed,0
-0.008,0.002,-0.006,-0.4803,0.4303,-0.5075,0.5714,0.0,0.0,0.0,1023,bed,0
-0.004,0.008,-0.005,-0.4802,0.4303,-0.5075,0.5714,0.0,0.0,0.0,1023,bed,0
-0.003,0.005,-0.001,-0.4802,0.4304,-0.5074,0.5714,0.0,0.0,0.0,1023,bed,0
-0.003,0.008,0.002,-0.4803,0.4304,-0.5073,0.5714,0.5,0.2,0.0,1023,bed,0
-0.001,0.011,0.002,-0.4803,0.4304,-0.5072,0.5715,0.0,0.0,0.0,0,bed,0
-0.007,0.003,0.004,-0.4802,0.4304,-0.5072,0.5715,-1.0,-0.1,0.0,0,bed,0
-0.006,0.008,0.0,-0.4801,0.4306,-0.5074,0.5714,-1.9,-0.3,0.0,0,bed,0
-0.008,0.006,-0.004,-0.4798,0.4308,-0.5076,0.5713,-2.1,-0.4,0.0,0,bed,0
-0.003,0.001,-0.004,-0.4796,0.431,-0.5078,0.5711,-1.6,-0.2,0.1,0,bed,0
-0.004,0.001,-0.01,-0.4794,0.4312,-0.5079,0.571,-0.9,0.0,0.0,0,bed,0
-0.002,0.008,-0.008,-0.4793,0.4313,-0.508,0.571,0.0,0.0,0.0,0,bed,0
-0.003,0.0,-0.002,-0.4793,0.4313,-0.508,0.5709,0.0,0.0,0.0,0,bed,0
-0.002,0.0,-0.004,-0.4793,0.4313,-0.508,0.571,0.9,0.0,0.0,0,bed,0
-0.003,0.007,0.0,-0.4793,0.4313,-0.5079,0.5711,1.3,-0.1,0.0,0,bed,0
-0.007,0.01,0.0,-0.4794,0.4312,-0.5077,0.5712,0.8,-0.1,0.0,0,bed,0
-0.007,0.006,-0.006,-0.4793,0.4312,-0.5077,0.5713,0.0,0.0,0.0,0,bed,0
-0.001,0.008,-0.002,-0.4793,0.4313,-0.5077,0.5713,0.0,0.0,0.0,0,bed,0
-0.002,0.007,0.0,-0.4793,0.4313,-0.5077,0.5713,0.0,0.0,0.0,0,bed,0
-0.008,0.002,0.0,-0.4793,0.4313,-0.5076,0.5713,0.0,0.0,0.0,0,bed,0
-0.007,0.008,-0.001,-0.4792,0.4314,-0.5076,0.5713,0.0,0.0,0.0,0,bed,0
-0.006,0.006,-0.003,-0.4792,0.4314,-0.5076,0.5714,0.0,0.0,0.0,0,bed,0
-0.005,0.006,-0.005,-0.4791,0.4315,-0.5075,0.5714,0.0,0.0,0.0,0,bed,0
0.0,0.007,-0.003,-0.4791,0.4315,-0.5076,0.5714,0.0,0.0,0.0,1023,bed,0
0.0,0.003,0.002,-0.4791,0.4315,-0.5076,0.5714,0.0,0.0,0.0,1023,bed,0
-0.002,0.004,0.0,-0.4791,0.4315,-0.5076,0.5714,0.0,0.0,0.0,1023,bed,0
-0.002,0.008,-0.003,-0.479,0.4316,-0.5075,0.5714,0.0,0.0,0.0,1023,bed,0
-0.005,0.007,0.001,-0.479,0.4316,-0.5075,0.5714,0.0,0.0,0.0,1023,bed,0
-0.001,0.008,-0.004,-0.479,0.4316,-0.5076,0.5714,0.0,0.0,0.0,1023,bed,0
-0.003,0.004,0.0,-0.4789,0.4317,-0.5076,0.5714,-0.5,-0.1,0.1,1023,bed,0
-0.003,0.007,-0.005,-0.4789,0.4317,-0.5076,0.5714,0.0,0.0,0.0,1023,bed,0
-0.007,0.009,-0.004,-0.4788,0.4318,-0.5076,0.5714,0.0,0.0,0.0,1023,bed,0
0.0,0.005,-0.004,-0.4788,0.4318,-0.5076,0.5714,0.0,0.0,0.0,1023,bed,0
-0.002,0.004,0.001,-0.4788,0.4318,-0.5076,0.5714,0.0,0.0,0.0,1023,bed,0
-0.004,0.003,0.0,-0.4787,0.4319,-0.5076,0.5714,0.0,0.0,0.0,1023,bed,0
-0.002,0.004,0.0,-0.4787,0.4319,-0.5076,0.5714,0.0,0.0,0.0,1023,bed,0
-0.003,0.01,0.003,-0.4787,0.4319,-0.5075,0.5714,0.0,0.0,0.0,1023,bed,0
-0.008,0.007,0.0,-0.4787,0.4319,-0.5075,0.5715,0.0,0.0,0.0,1023,bed,0
-0.006,0.002,-0.001,-0.4786,0.432,-0.5075,0.5714,-0.8,0.0,0.0,1023,bed,0
-0.007,0.006,-0.001,-0.4784,0.4321,-0.5076,0.5714,-1.5,-0.3,0.1,1023,bed,0
0.0,0.004,-0.005,-0.4782,0.4323,-0.5078,0.5713,-1.1,-0.2,0.0,1023,bed,0
0.001,0.004,-0.005,-0.4782,0.4323,-0.5079,0.5712,0.0,0.0,0.0,1023,bed,0
0.001,0.005,-0.001,-0.4782,0.4323,-0.5079,0.5712,0.0,0.0,0.0,1023,bed,0
0.001,0.009,-0.004,-0.4782,0.4323,-0.508,0.5712,0.0,0.0,0.0,1023,bed,0
0.0,0.006,-0.003,-0.4781,0.4323,-0.508,0.5712,0.0,0.0,0.0,1023,bed,0
-0.004,0.008,0.0,-0.4781,0.4324,-0.508,0.5712,0.0,0.0,0.0,1023,bed,0
-0.005,0.006,0.002,-0.4781,0.4324,-0.5079,0.5712,0.0,0.0,0.0,0,bed,0
-0.004,0.007,0.0,-0.4781,0.4324,-0.5079,0.5712,0.0,0.0,0.0,0,bed,0
-0.006,0.011,0.0,-0.478,0.4325,-0.5079,0.5713,-0.6,-0.2,0.0,0,bed,0
-0.002,0.004,-0.001,-0.4779,0.4325,-0.508,0.5712,-0.9,-0.1,0.0,0,bed,0
0.0,0.006,-0.001,-0.4779,0.4326,-0.5081,0.5712,-0.5,-0.2,0.1,0,bed,0
-0.001,0.005,-0.002,-0.4778,0.4326,-0.5081,0.5711,0.0,0.0,0.0,0,bed,0
-0.004,0.007,0.0,-0.4778,0.4326,-0.5081,0.5711,0.0,0.0,0.0,0,bed,0
0.0,0.009,-0.002,-0.4778,0.4326,-0.5081,0.5712,0.0,0.0,0.0,0,bed,0
0.0,0.005,0.002,-0.4778,0.4326,-0.508,0.5712,0.0,0.0,0.0,0,bed,0
-0.001,0.004,0.0,-0.4778,0.4326,-0.508,0.5712,0.0,0.0,0.0,0,bed,0
-0.003,0.005,0.0,-0.4778,0.4326,-0.5081,0.5712,0.0,0.0,0.0,0,bed,0
0.0,0.006,0.0,-0.4778,0.4327,-0.5081,0.5712,0.0,0.0,0.0,0,bed,0
-0.002,0.007,-0.005,-0.4778,0.4327,-0.5081,0.5712,0.0,0.0,0.0,0,bed,0
0.0,0.005,0.001,-0.4777,0.4327,-0.508,0.5712,0.0,0.0,0.0,0,bed,0
-0.002,0.005,-0.002,-0.4777,0.4327,-0.508,0.5712,0.0,0.0,0.0,0,bed,0
-0.002,0.003,-0.002,-0.4777,0.4327,-0.508,0.5712,0.0,0.0,0.0,0,bed,0
0.0,0.009,-0.001,-0.4777,0.4327,-0.508,0.5712,0.0,0.0,0.0,0,bed,0
0.0,0.006,0.0,-0.4777,0.4327,-0.508,0.5712,0.0,0.0,0.0,0,bed,0
-0.001,0.006,-0.001,-0.4777,0.4328,-0.508,0.5712,0.0,0.0,0.0,0,bed,0
-0.001,0.007,0.0,-0.4776,0.4328,-0.508,0.5712,0.0,0.0,0.0,0,bed,0
-0.004,0.007,-0.001,-0.4776,0.4328,-0.508,0.5712,0.0,0.0,0.0,0,bed,0
0.0,0.004,0.005,-0.4777,0.4328,-0.508,0.5712,0.0,0.0,0.0,1023,bed,0
0.0,0.007,0.0,-0.4776,0.4328,-0.5081,0.5712,-1.1,-0.5,0.1,1023,bed,0
-0.001,0.01,0.002,-0.4774,0.4329,-0.5083,0.5711,-1.1,-0.6,0.1,1023,bed,0
0.003,0.011,0.005,-0.4773,0.4329,-0.5084,0.5711,-1.1,-0.7,0.1,1023,bed,0
0.0,0.011,-0.002,-0.4771,0.4329,-0.5086,0.5711,-1.1,-1.0,0.4,1023,bed,0
-0.009,-0.001,-0.005,-0.4768,0.4329,-0.5088,0.5712,-0.7,-1.6,0.7,1023,bed,0
-0.019,-0.016,-0.006,-0.4764,0.4329,-0.5089,0.5713,0.3,-1.8,0.6,1023,bed,0
-0.021,-0.01,-0.012,-0.4762,0.4328,-0.5088,0.5717,2.9,-1.8,0.6,1023,bed,0
-0.012,0.004,-0.013,-0.4761,0.4325,-0.5085,0.5722,4.6,-1.5,0.3,1023,bed,0
-0.002,0.006,-0.018,-0.4762,0.4322,-0.5081,0.5727,4.6,-1.0,0.2,1023,bed,0
0.006,-0.007,-0.017,-0.4765,0.4317,-0.5078,0.5732,6.1,-0.6,0.0,1023,bed,0
0.009,0.001,0.0,-0.4771,0.431,-0.5071,0.5738,8.5,0.2,0.0,1023,bed,0
0.012,0.01,0.006,-0.478,0.4302,-0.5061,0.5746,10.5,1.1,-0.1,0,bed,0
0.007,0.016,0.01,-0.479,0.4293,-0.505,0.5754,10.4,1.3,-0.1,0,bed,0
0.005,0.024,0.004,-0.4799,0.4285,-0.5038,0.5763,9.2,1.0,0.0,0,bed,0
0.0,0.035,0.002,-0.4805,0.428,-0.5031,0.5767,1.5,0.4,-0.2,0,bed,0
0.005,0.007,0.007,-0.4804,0.4281,-0.5033,0.5765,-4.8,-0.1,-0.5,0,bed,0
0.007,-0.005,0.006,-0.48,0.4285,-0.504,0.576,-6.4,0.0,-0.6,0,bed,0
0.008,-0.002,0.017,-0.4798,0.4288,-0.5046,0.5754,-5.5,0.3,-0.4,0,bed,0
0.004,0.01,0.018,-0.4795,0.4292,-0.5051,0.5749,-6.1,0.3,-0.3,0,bed,0
-0.004,0.025,0.014,-0.4791,0.4297,-0.5057,0.5743,-8.3,0.0,-0.1,0,bed,0
-0.01,0.017,0.001,-0.4783,0.4304,-0.5067,0.5736,-10.6,-0.8,0.0,0,bed,0
-0.015,0.008,-0.002,-0.4773,0.4313,-0.5078,0.5728,-11.1,-1.6,0.4,0,bed,0
-0.014,-0.008,-0.01,-0.4761,0.4323,-0.509,0.572,-11.2,-2.2,0.5,0,bed,0
-0.009,-0.008,-0.024,-0.4749,0.4331,-0.5102,0.5713,-8.7,-2.6,0.4,0,bed,0
0.0,0.004,-0.018,-0.474,0.4335,-0.5112,0.5708,-5.0,-2.4,0.5,0,bed,0
0.0,-0.012,-0.021,-0.4734,0.4337,-0.5118,0.5706,-1.7,-2.2,0.9,0,bed,0
-0.005,-0.011,-0.022,-0.4731,0.4337,-0.5119,0.5708,2.7,-1.3,0.5,0,bed,0
-0.013,-0.001,-0.02,-0.4732,0.4334,-0.5115,0.5713,6.5,-0.9,0.4,0,bed,0
-0.011,0.004,-0.019,-0.4736,0.4329,-0.5107,0.5721,10.4,0.3,0.2,0,bed,0
-0.002,-0.003,-0.016,-0.4745,0.4321,-0.5094,0.5731,14.6,1.6,0.2,0,bed,0
-0.003,0.0,0.001,-0.476,0.431,-0.5075,0.5744,18.7,3.3,-0.1,0,bed,0
-0.005,-0.001,0.019,-0.4779,0.4297,-0.5052,0.5758,20.1,4.2,-1.0,0,bed,0
0.001,0.004,0.022,-0.4799,0.4283,-0.5029,0.5772,17.3,4.0,-1.9,0,bed,0
0.013,0.019,0.029,-0.4817,0.427,-0.5011,0.5782,13.2,3.4,-1.8,0,bed,0
0.007,0.026,0.021,-0.483,0.4261,-0.4998,0.5789,7.4,2.3,-0.9,0,bed,0
0.005,0.001,-0.002,-0.4837,0.4257,-0.4992,0.5792,3.2,1.4,-0.1,0,bed,0
-0.006,-0.003,0.007,-0.484,0.4257,-0.4987,0.5793,2.9,0.9,0.4,0,bed,0
-0.003,0.003,0.024,-0.4841,0.4256,-0.4985,0.5796,-2.3,-1.1,0.2,1023,bed,0
0.014,-0.008,-0.002,-0.4834,0.4259,-0.4994,0.5791,-11.7,-3.2,0.3,1023,bed,0
-0.001,-0.077,-0.037,-0.4818,0.4269,-0.5011,0.5782,-13.0,-3.4,2.3,1023,bed,0
0.027,-0.102,-0.032,-0.4805,0.4277,-0.5022,0.5778,0.6,-2.5,5.1,1023,bed,0
0.064,-0.079,-0.024,-0.4804,0.4272,-0.5014,0.5788,13.2,-1.8,7.3,1023,bed,0
0.081,-0.084,-0.042,-0.4809,0.4262,-0.4999,0.5805,17.9,-0.7,8.5,1023,bed,0
0.068,-0.116,-0.105,-0.4816,0.4252,-0.4979,0.5825,27.3,1.1,9.1,1023,bed,0
0.037,-0.072,-0.098,-0.4833,0.4235,-0.4942,0.5853,41.7,3.8,8.9,1023,bed,0
0.065,0.0,-0.105,-0.4859,0.4212,-0.4895,0.5888,44.3,5.9,7.7,1023,bed,0
0.064,0.015,-0.08,-0.489,0.4189,-0.4848,0.5917,41.5,9.2,5.1,1023,bed,0
0.03,-0.017,-0.091,-0.4924,0.417,-0.48,0.5942,42.4,12.2,4.4,1023,bed,0
0.007,-0.051,-0.114,-0.4962,0.4151,-0.4742,0.597,55.1,14.8,4.6,1023,bed,0
-0.004,0.016,-0.073,-0.501,0.4124,-0.4664,0.601,69.4,17.0,7.8,1023,bed,0
0.052,0.107,-0.063,-0.5066,0.409,-0.4572,0.6057,64.0,21.6,8.1,1023,bed,0
0.026,-0.02,-0.026,-0.5115,0.4074,-0.4494,0.6085,43.4,24.5,7.3,1023,bed,0
0.079,-0.076,-0.024,-0.5158,0.4066,-0.4421,0.6107,50.0,25.7,9.6,1023,bed,0
0.144,-0.05,-0.058,-0.5213,0.4046,-0.4327,0.6141,72.1,29.5,9.8,1023,bed,0
0.113,0.041,-0.061,-0.5282,0.4014,-0.4209,0.6185,81.8,33.4,9.0,1023,bed,0
0.06,0.051,-0.04,-0.5357,0.3981,-0.4088,0.6223,79.2,37.3,10.9,1023,bed,0
0.049,0.005,-0.032,-0.5423,0.3959,-0.3964,0.626,73.7,39.2,16.7,1023,bed,0
0.053,-0.06,-0.022,-0.5479,0.3948,-0.3837,0.6297,72.5,42.2,23.8,1023,bed,0
0.04,-0.069,0.031,-0.5531,0.3942,-0.3699,0.6338,73.0,46.2,28.7,1023,bed,0
-0.04,-0.066,0.083,-0.5578,0.3943,-0.3553,0.6379,68.2,48.6,30.9,1023,bed,0
-0.118,-0.062,0.109,-0.5614,0.3955,-0.3407,0.6419,55.6,46.9,31.5,0,bed,0
-0.136,-0.062,0.086,-0.5637,0.3981,-0.3277,0.6451,42.3,45.6,29.6,0,bed,0
-0.128,-0.075,0.133,-0.5657,0.401,-0.3159,0.6474,41.7,45.1,24.9,0,bed,0
-0.098,-0.063,0.185,-0.5689,0.4025,-0.3039,0.6495,50.5,43.7,17.9,0,bed,0
-0.087,-0.041,0.249,-0.5736,0.4019,-0.2911,0.6515,64.0,41.3,12.7,0,bed,0
-0.042,-0.015,0.252,-0.5792,0.3999,-0.2786,0.6533,74.0,36.1,9.2,0,bed,0
-0.01,0.086,0.177,-0.5852,0.3964,-0.2659,0.6553,75.5,32.3,6.2,0,bed,0
0.02,0.125,0.145,-0.591,0.3929,-0.254,0.657,68.8,30.9,5.5,0,bed,0
0.002,0.113,0.133,-0.5961,0.3897,-0.2428,0.6585,66.2,29.6,7.3,0,bed,0
0.043,0.103,0.119,-0.6009,0.3862,-0.2314,0.6603,71.1,27.4,9.3,0,bed,0
0.143,0.119,0.056,-0.606,0.3816,-0.219,0.6625,81.7,27.0,9.4,0,bed,0
0.206,0.166,-0.048,-0.6116,0.3762,-0.2055,0.6648,88.5,30.2,9.9,0,bed,0
0.169,0.199,-0.145,-0.6173,0.3707,-0.1906,0.6671,91.0,35.6,14.3,0,bed,0
0.049,0.15,-0.148,-0.6223,0.3657,-0.1749,0.6695,90.8,41.6,24.3,0,bed,0
0.08,0.065,-0.054,-0.6259,0.3614,-0.1574,0.6728,94.8,41.9,34.7,0,bed,0
0.159,0.031,-0.087,-0.6289,0.3563,-0.1393,0.6767,99.7,44.1,39.8,0,bed,0
0.192,0.046,-0.179,-0.6314,0.3517,-0.1199,0.6805,100.1,48.0,39.8,0,bed,0
0.135,0.074,-0.161,-0.6337,0.3474,-0.1004,0.6837,96.5,51.7,38.2,1023,bed,0
-0.01,0.02,-0.121,-0.6354,0.3447,-0.0819,0.6859,81.9,52.3,37.0,1023,bed,0
-0.014,-0.09,-0.094,-0.6359,0.3438,-0.0651,0.6878,73.1,49.2,38.2,1023,bed,0
0.055,-0.095,-0.107,-0.6363,0.3419,-0.0489,0.6897,72.2,47.6,34.2,1023,bed,0
0.037,-0.031,-0.116,-0.6372,0.341,-0.0341,0.6902,64.6,49.9,25.2,1023,bed,0
-0.017,-0.021,-0.109,-0.6382,0.3418,-0.0209,0.6894,47.1,51.5,14.5,1023,bed,0
-0.085,-0.023,-0.106,-0.6392,0.3446,-0.0099,0.6874,29.0,50.1,6.0,1023,bed,0
-0.106,-0.064,-0.135,-0.6402,0.3482,-0.0019,0.6846,14.7,47.9,-1.4,1023,bed,0
-0.063,-0.061,-0.16,-0.6416,0.3524,0.0045,0.6812,11.8,48.0,-8.3,1023,bed,0
-0.061,-0.025,-0.161,-0.6437,0.3569,0.0109,0.6767,13.9,51.9,-14.5,1023,bed,0
-0.076,-0.022,-0.146,-0.6467,0.3614,0.0179,0.6713,22.9,55.3,-19.8,1023,bed,0
-0.113,0.029,-0.128,-0.6509,0.3646,0.0266,0.6652,37.4,57.8,-22.3,1023,bed,0
-0.11,0.069,-0.1,-0.6557,0.3668,0.0365,0.6588,41.5,57.9,-21.4,1023,bed,0
-0.056,0.123,-0.112,-0.6601,0.369,0.0465,0.6525,38.0,58.9,-17.6,1023,bed,0
-0.049,0.143,-0.102,-0.6637,0.3718,0.0565,0.6465,33.5,60.0,-13.6,1023,bed,0
-0.086,0.157,-0.065,-0.6663,0.375,0.0663,0.6409,29.8,61.1,-8.6,1023,bed,0
-0.09,0.14,-0.04,-0.6681,0.3786,0.0761,0.6359,25.2,60.3,-4.0,1023,bed,0
-0.075,0.101,-0.052,-0.6688,0.3828,0.0853,0.6314,18.2,59.4,1.3,0,bed,0
-0.053,0.074,-0.037,-0.6683,0.3873,0.0951,0.6278,17.6,59.0,6.9,0,bed,0
-0.04,0.082,-0.017,-0.6671,0.3915,0.1054,0.6248,16.6,59.5,11.3,0,bed,0
-0.053,0.072,0.02,-0.6654,0.3957,0.1156,0.6223,14.4,57.3,14.4,0,bed,0
-0.042,0.069,0.041,-0.6633,0.3996,0.1252,0.6201,10.0,54.6,14.9,0,bed,0
-0.017,0.036,0.046,-0.6608,0.4037,0.1335,0.6184,3.0,50.5,15.9,0,bed,0
-0.021,0.007,0.065,-0.6579,0.4081,0.1403,0.617,-1.9,46.9,17.7,0,bed,0
-0.017,0.071,0.054,-0.6546,0.4124,0.1466,0.6163,-4.7,41.9,19.0,0,bed,0
-0.019,0.069,0.087,-0.6508,0.4163,0.152,0.6164,-13.0,36.5,20.5,0,bed,0
-0.004,0.081,0.062,-0.6462,0.4205,0.1559,0.6174,-21.7,31.4,25.1,0,bed,0
-0.007,0.102,0.038,-0.6405,0.425,0.159,0.6195,-27.9,26.9,29.9,0,bed,0
-0.053,0.105,0.067,-0.6339,0.4294,0.1615,0.6225,-33.6,22.0,32.5,0,bed,0
-0.059,0.136,0.033,-0.6265,0.4345,0.1625,0.6262,-46.1,18.8,35.5,0,bed,0
-0.089,0.229,-0.01,-0.6175,0.4414,0.1613,0.6305,-66.6,17.8,41.2,0,bed,0
-0.153,0.246,-0.111,-0.6057,0.4511,0.1572,0.6362,-100.4,16.9,43.8,0,bed,0
-0.199,0.135,-0.221,-0.5912,0.4639,0.1494,0.6425,-126.8,15.3,42.4,0,bed,0
-0.11,0.018,-0.293,-0.5755,0.4778,0.1401,0.6486,-122.7,20.6,41.1,0,bed,0
-0.041,-0.148,-0.379,-0.562,0.4894,0.1354,0.6528,-65.0,32.5,42.5,0,bed,0
-0.024,-0.155,-0.292,-0.5542,0.4949,0.1401,0.6543,12.1,41.4,43.3,0,bed,0
0.009,-0.015,-0.235,-0.5512,0.4954,0.1524,0.6537,54.4,47.3,44.3,0,bed,0
0.063,0.072,-0.174,-0.5504,0.4932,0.1689,0.652,79.3,50.9,48.0,0,bed,0
-0.027,0.441,0.196,-0.5497,0.4898,0.1875,0.65,58.8,49.4,51.1,1023,bed,0
-0.087,0.204,0.298,-0.5441,0.4915,0.198,0.6504,-6.6,38.8,49.3,1023,bed,0
-0.084,0.103,0.18,-0.5359,0.4951,0.2037,0.6527,-20.8,30.8,48.2,1023,bed,0
-0.049,0.046,0.014,-0.5274,0.4989,0.2076,0.6555,-30.3,29.2,42.7,1023,bed,0
0.05,0.102,-0.133,-0.5183,0.5038,0.211,0.6578,-29.0,32.3,43.0,1023,bed,0
0.013,0.066,-0.094,-0.5094,0.5086,0.2162,0.6595,-17.7,34.5,43.1,1023,bed,0
-0.019,0.035,-0.082,-0.5014,0.5127,0.2216,0.6606,-14.8,32.5,41.8,1023,bed,0
0.04,0.032,0.024,-0.4935,0.5163,0.2268,0.662,-18.3,33.6,42.0,1023,bed,0
0.029,-0.062,0.096,-0.4861,0.5194,0.2311,0.6637,-13.0,33.3,43.1,1023,bed,0
0.057,0.024,0.088,-0.4791,0.5216,0.2366,0.665,-6.9,34.9,45.7,1023,bed,0
-0.009,-0.029,0.124,-0.4716,0.5237,0.242,0.6668,-16.3,32.0,47.6,1023,bed,0
-0.053,-0.111,0.163,-0.4634,0.5263,0.2463,0.6689,-19.9,28.3,46.6,1023,bed,0
0.024,-0.085,0.014,-0.4553,0.5292,0.2501,0.6707,-15.0,28.7,43.2,1023,bed,0
0.006,0.13,-0.035,-0.448,0.5315,0.2554,0.6718,-6.8,27.6,42.0,1023,bed,0
-0.045,0.076,-0.106,-0.4408,0.5333,0.2607,0.6731,-9.9,24.4,41.9,1023,bed,0
-0.073,0.032,-0.31,-0.4341,0.5351,0.2656,0.6742,-2.8,27.5,39.5,1023,bed,0
-0.068,0.291,-0.261,-0.4286,0.5363,0.2726,0.674,12.4,32.7,42.1,0,bed,0
-0.029,0.279,-0.126,-0.4227,0.5375,0.28,0.6737,2.1,32.2,41.9,0,bed,0
0.003,0.05,-0.013,-0.4159,0.5391,0.2863,0.674,-4.4,29.6,42.7,0,bed,0
0.009,-0.056,-0.015,-0.409,0.5411,0.2912,0.6745,-7.5,27.6,41.5,0,bed,0
-0.013,-0.122,0.08,-0.4023,0.5426,0.2955,0.6754,-10.9,24.2,41.2,0,bed,0
-0.015,-0.04,0.068,-0.3958,0.5435,0.3001,0.6765,-2.5,23.3,42.4,0,bed,0
-0.032,0.039,0.036,-0.3898,0.5439,0.3054,0.6773,3.3,23.9,39.9,0,bed,0
0.011,0.043,-0.024,-0.3843,0.544,0.3117,0.6775,8.7,23.6,36.9,0,bed,0
0.062,0.044,-0.045,-0.3797,0.544,0.3186,0.6769,16.3,22.7,35.5,0,bed,0
0.044,0.105,-0.112,-0.3756,0.5436,0.326,0.6761,16.0,23.1,35.4,0,bed,0
-0.055,0.037,-0.114,-0.3709,0.5438,0.3329,0.675,12.6,22.1,34.2,0,bed,0
-0.158,0.031,-0.012,-0.3667,0.5439,0.3393,0.6741,11.9,18.3,32.0,0,bed,0
-0.094,-0.012,0.076,-0.3633,0.5433,0.3444,0.6738,9.3,13.3,28.3,0,bed,0
-0.026,-0.077,0.073,-0.3605,0.5422,0.348,0.6744,4.7,8.9,25.9,0,bed,0
0.013,-0.05,0.01,-0.3579,0.541,0.351,0.6752,6.6,6.1,26.6,0,bed,0
-0.001,0.059,-0.072,-0.3554,0.5396,0.3555,0.6752,17.8,6.4,27.4,0,bed,0
0.041,0.157,-0.133,-0.3536,0.5373,0.3611,0.675,23.0,7.3,28.5,0,bed,0
0.016,0.012,-0.07,-0.3516,0.5353,0.3672,0.6744,20.9,7.9,29.3,0,bed,0
-0.096,-0.008,0.044,-0.3495,0.5333,0.3722,0.6743,11.2,3.2,30.3,0,bed,0
-0.062,0.071,-0.044,-0.3471,0.5311,0.3766,0.6749,12.3,0.8,28.9,0,bed,0
-0.027,-0.029,0.06,-0.345,0.5285,0.381,0.6755,17.0,-0.7,27.6,1023,bed,0
-0.024,0.013,0.007,-0.3441,0.5251,0.3851,0.6763,21.0,-4.9,26.3,1023,bed,0
0.002,0.064,-0.152,-0.3428,0.5215,0.3896,0.6772,13.6,-5.9,26.3,1023,bed,0
-0.029,0.008,-0.045,-0.3406,0.5189,0.3928,0.6784,-0.6,-6.5,27.6,1023,bed,0
-0.059,-0.009,0.003,-0.3381,0.5162,0.3944,0.6808,-1.4,-11.8,30.2,1023,bed,0
-0.016,0.082,-0.022,-0.3349,0.5128,0.3961,0.684,-5.0,-13.9,30.4,1023,bed,0
0.035,0.085,-0.012,-0.3313,0.5093,0.3979,0.6872,-5.1,-11.7,30.7,1023,bed,0
0.066,0.075,-0.02,-0.3279,0.5059,0.4003,0.6901,0.3,-8.9,33.4,1023,bed,0
0.028,-0.006,-0.026,-0.3238,0.5024,0.4033,0.6928,0.0,-8.0,36.2,1023,bed,0
-0.009,0.046,0.014,-0.3162,0.4994,0.4079,0.6957,-6.9,-8.8,38.7,1023,bed,0
-0.054,-0.023,0.034,-0.3086,0.4965,0.4112,0.6993,-7.3,-11.3,37.7,1023,bed,0
-0.045,-0.003,0.006,-0.3017,0.4932,0.4144,0.7027,-1.9,-13.3,36.3,1023,bed,0
-0.049,0.061,-0.025,-0.2955,0.4896,0.419,0.7051,5.7,-9.9,33.8,1023,bed,0
-0.05,0.014,0.024,-0.2905,0.4858,0.4244,0.7066,20.5,-9.0,34.0,1023,bed,0
-0.042,-0.036,-0.023,-0.286,0.4819,0.4311,0.7071,24.6,-6.0,36.7,1023,bed,0
-0.059,-0.042,-0.094,-0.2816,0.4782,0.4392,0.7064,32.3,-1.5,41.6,1023,bed,0
-0.106,-0.004,-0.092,-0.2766,0.4745,0.4485,0.705,33.0,0.9,45.4,1023,bed,0
-0.167,0.047,-0.045,-0.2708,0.471,0.4575,0.7038,24.6,3.6,46.0,0,bed,0
-0.214,-0.035,0.004,-0.2649,0.4682,0.4646,0.7033,16.2,4.2,41.2,0,bed,0
-0.254,-0.075,-0.076,-0.2601,0.4648,0.4712,0.703,25.7,-6.5,37.8,0,bed,0
-0.252,-0.066,-0.211,-0.2565,0.4602,0.4776,0.7029,15.9,-13.6,28.5,0,bed,0
-0.219,-0.01,-0.275,-0.2532,0.4566,0.4804,0.7046,-12.0,-18.0,19.4,0,bed,0
-0.22,0.106,-0.249,-0.2482,0.4551,0.4774,0.7093,-57.6,-22.8,6.4,0,bed,0
-0.234,0.361,-0.094,-0.2419,0.4567,0.4666,0.7176,-127.3,-28.5,-17.0,0,bed,0
-0.286,0.207,-0.011,-0.2333,0.4613,0.4441,0.7317,-181.5,-48.7,-31.1,0,bed,0
-0.268,0.135,0.047,-0.2237,0.4649,0.4137,0.75,-214.0,-67.3,-38.9,0,bed,0
-0.197,0.223,-0.085,-0.2143,0.4667,0.3806,0.7689,-217.5,-77.3,-42.8,0,bed,0
-0.162,0.219,-0.186,-0.2042,0.468,0.3436,0.788,-247.2,-78.6,-52.3,0,bed,0
-0.172,0.139,-0.198,-0.1922,0.4697,0.3016,0.8071,-267.1,-78.3,-57.0,0,bed,0
-0.183,0.048,-0.214,-0.1794,0.4699,0.2579,0.8248,-261.4,-82.4,-54.7,0,bed,0
-0.147,0.029,-0.245,-0.1667,0.4677,0.2162,0.8406,-240.0,-82.8,-48.1,0,bed,0
-0.112,0.077,-0.247,-0.154,0.4639,0.1773,0.8541,-227.7,-78.5,-40.4,0,bed,0
-0.155,0.064,-0.233,-0.1402,0.4597,0.1396,0.8657,-228.2,-71.5,-34.6,0,bed,0
-0.145,0.028,-0.27,-0.1249,0.4555,0.1013,0.8755,-233.6,-64.2,-30.6,0,bed,0
-0.107,-0.04,-0.355,-0.1089,0.4514,0.0636,0.8833,-224.1,-53.5,-26.4,1023,bed,0
-0.077,0.0,-0.379,-0.0932,0.4481,0.0284,0.8886,-209.3,-41.8,-20.9,1023,bed,0
-0.041,-0.004,-0.376,-0.078,0.4455,-0.0032,0.8918,-184.2,-28.3,-14.2,1023,bed,0
-0.015,0.017,-0.365,-0.0634,0.4442,-0.0302,0.8931,-162.8,-13.8,-5.7,1023,bed,0
-0.009,0.002,-0.33,-0.0493,0.4445,-0.0538,0.8927,-147.2,1.3,2.5,1023,bed,0
0.019,0.024,-0.318,-0.0352,0.4467,-0.0745,0.8908,-135.8,14.5,9.8,1023,bed,0
0.042,0.058,-0.352,-0.0211,0.4505,-0.0935,0.8875,-131.1,26.5,14.4,1023,bed,0
0.057,0.057,-0.326,-0.0071,0.4557,-0.1117,0.883,-126.4,35.4,17.3,1023,bed,0
0.054,0.031,-0.286,0.0063,0.4618,-0.1281,0.8776,-112.4,40.9,22.0,1023,bed,0
0.048,0.0,-0.232,0.0189,0.4684,-0.1413,0.8718,-91.7,44.5,28.0,1023,bed,0
0.026,-0.02,-0.173,0.0307,0.4756,-0.1508,0.866,-71.9,46.4,35.1,1023,bed,0
0.024,0.011,-0.136,0.0416,0.4839,-0.1587,0.8595,-64.5,47.8,41.1,1023,bed,0
0.035,0.017,-0.104,0.0527,0.4928,-0.1665,0.8524,-68.3,48.2,45.5,1023,bed,0
0.057,-0.011,-0.103,0.065,0.5013,-0.1751,0.8448,-78.6,47.3,49.9,1023,bed,0
0.062,-0.039,-0.068,0.0785,0.5094,-0.1848,0.8367,-85.5,45.6,55.6,1023,bed,0
0.071,-0.049,-0.015,0.0933,0.5166,-0.1945,0.8285,-89.7,42.7,61.6,1023,bed,0
0.086,-0.089,0.032,0.109,0.5228,-0.2043,0.8203,-93.3,38.3,66.1,1023,bed,0
0.117,-0.127,0.066,0.1263,0.5282,-0.2126,0.8122,-96.2,34.2,67.9,1023,bed,0
0.154,-0.129,0.079,0.1442,0.5329,-0.2208,0.8039,-100.7,30.3,67.6,0,bed,0
0.172,-0.156,0.078,0.1623,0.5367,-0.2297,0.7954,-105.5,27.3,65.6,0,bed,0
0.174,-0.178,0.097,0.1802,0.5397,-0.239,0.7867,-105.4,24.9,62.6,0,bed,0
0.167,-0.165,0.167,0.1973,0.5421,-0.2481,0.7781,-101.6,21.3,59.9,0,bed,0
0.17,-0.17,0.222,0.2138,0.5436,-0.2567,0.7699,-98.4,14.9,58.0,0,bed,0
0.168,-0.155,0.236,0.2301,0.5441,-0.2647,0.7621,-96.9,8.3,58.1,0,bed,0
0.171,-0.122,0.215,0.2466,0.5436,-0.2726,0.7545,-102.7,3.1,59.6,0,bed,0
0.16,-0.116,0.177,0.2643,0.542,-0.2813,0.7464,-115.2,-0.8,61.1,0,bed,0
0.144,-0.146,0.165,0.2833,0.5392,-0.2912,0.7376,-125.7,-3.0,62.8,0,bed,0
0.106,-0.175,0.178,0.3031,0.5357,-0.3019,0.7279,-134.6,-4.7,63.4,0,bed,0
0.091,-0.181,0.169,0.3233,0.5313,-0.3136,0.7174,-142.3,-5.0,63.4,0,bed,0
0.081,-0.188,0.153,0.3438,0.5262,-0.3259,0.7061,-147.7,-3.6,62.0,0,bed,0
0.067,-0.19,0.139,0.3639,0.5208,-0.3388,0.6938,-151.0,-1.2,60.1,0,bed,0
0.061,-0.202,0.133,0.3834,0.5151,-0.3521,0.6808,-152.3,1.6,57.7,0,bed,0
0.068,-0.209,0.12,0.402,0.5094,-0.3655,0.6672,-149.6,4.4,55.7,0,bed,0
0.064,-0.217,0.124,0.4193,0.504,-0.3784,0.6533,-139.4,7.3,53.9,0,bed,0
0.027,-0.195,0.138,0.4349,0.4995,-0.3896,0.6398,-123.9,7.7,52.9,1023,bed,0
0.0,-0.222,0.162,0.4484,0.4958,-0.3993,0.6272,-108.4,7.3,48.3,1023,bed,0
-0.035,-0.205,0.15,0.4599,0.493,-0.407,0.6161,-89.2,5.6,44.6,1023,bed,0
-0.073,-0.203,0.138,0.4693,0.4909,-0.4132,0.6065,-75.5,2.9,37.7,1023,bed,0
-0.086,-0.221,0.112,0.4771,0.4888,-0.4182,0.5986,-62.8,-0.2,29.8,1023,bed,0
-0.094,-0.206,0.096,0.4831,0.4867,-0.4226,0.5924,-55.2,-3.8,19.9,1023,bed,0
-0.061,-0.192,0.086,0.4879,0.4837,-0.4272,0.5876,-54.0,-6.9,9.0,1023,bed,0
-0.034,-0.185,0.09,0.4917,0.4795,-0.4325,0.5839,-55.9,-8.9,-2.9,1023,bed,0
-0.028,-0.181,0.088,0.4944,0.4743,-0.4388,0.5813,-53.9,-9.6,-14.2,1023,bed,0
-0.032,-0.173,0.088,0.4957,0.4686,-0.4454,0.5798,-47.8,-9.9,-23.4,1023,bed,0
-0.036,-0.169,0.07,0.4957,0.4629,-0.4517,0.5795,-37.7,-9.9,-29.7,1023,bed,0
-0.028,-0.147,0.052,0.4942,0.4577,-0.4574,0.5804,-27.2,-10.5,-32.5,1023,bed,0
-0.004,-0.124,0.034,0.4913,0.453,-0.4627,0.5824,-18.6,-11.5,-33.6,1023,bed,0
0.03,-0.106,0.017,0.4878,0.4489,-0.4672,0.5849,-11.4,-12.2,-32.9,1023,bed,0
0.038,-0.09,0.006,0.4841,0.4454,-0.4708,0.5877,-7.3,-12.6,-31.5,1023,bed,0
0.037,-0.075,0.001,0.4806,0.4424,-0.4738,0.5905,-4.6,-13.2,-28.9,0,bed,0
0.03,-0.059,-0.016,0.4772,0.4397,-0.4763,0.5931,-3.0,-14.0,-26.3,0,bed,0
0.038,-0.038,-0.036,0.4743,0.4373,-0.4785,0.5955,-5.1,-14.6,-24.1,0,bed,0
0.046,-0.016,-0.062,0.4719,0.4349,-0.481,0.5972,-10.5,-14.8,-23.3,0,bed,0
0.063,-0.005,-0.08,0.4701,0.432,-0.4841,0.5981,-17.8,-14.8,-23.0,0,bed,0
0.063,0.003,-0.091,0.4688,0.4287,-0.488,0.5984,-24.2,-14.9,-23.0,0,bed,0
0.062,0.004,-0.106,0.468,0.425,-0.4925,0.598,-29.5,-14.3,-22.8,0,bed,0
0.04,0.009,-0.122,0.4675,0.421,-0.4975,0.597,-32.7,-13.2,-21.7,0,bed,0
0.026,0.009,-0.135,0.4673,0.4173,-0.5027,0.5955,-33.9,-11.8,-19.8,0,bed,0
0.021,0.006,-0.14,0.467,0.4139,-0.5079,0.5936,-32.9,-9.4,-17.1,0,bed,0
0.01,0.009,-0.14,0.4667,0.4113,-0.5129,0.5914,-29.7,-6.6,-14.0,0,bed,0
0.004,0.002,-0.133,0.4662,0.4097,-0.5174,0.589,-24.5,-2.8,-10.0,0,bed,0
-0.003,0.001,-0.123,0.4655,0.4091,-0.5212,0.5866,-18.1,0.8,-5.9,0,bed,0
-0.007,-0.001,-0.099,0.4644,0.4097,-0.5242,0.5844,-9.9,4.7,-2.4,0,bed,0
-0.002,-0.004,-0.079,0.4628,0.4114,-0.5262,0.5826,-2.1,7.7,0.1,0,bed,0
-0.002,-0.005,-0.065,0.4608,0.414,-0.5275,0.5812,4.6,9.8,1.0,0,bed,0
0.0,0.006,-0.055,0.4583,0.4172,-0.5281,0.5803,9.3,11.1,0.7,0,bed,0
0.0,0.008,-0.039,0.4555,0.4207,-0.5284,0.5798,12.5,12.5,0.0,0,bed,0
-0.004,0.01,-0.026,0.4524,0.4244,-0.5284,0.5795,14.5,13.1,-0.4,1023,bed,0
-0.015,0.014,-0.011,0.4493,0.428,-0.5282,0.5793,15.4,13.3,-0.3,1023,bed,0
-0.021,0.014,0.001,0.4464,0.4317,-0.5278,0.5793,15.5,13.3,0.9,1023,bed,0
-0.022,0.012,0.007,0.4437,0.4354,-0.5272,0.5792,14.4,13.2,2.2,1023,bed,0
-0.022,0.005,0.02,0.4414,0.4389,-0.5266,0.5789,12.9,12.9,3.8,1023,bed,0
-0.024,0.001,0.033,0.4393,0.4423,-0.5258,0.5785,12.1,12.3,5.2,1023,bed,0
-0.02,0.0,0.038,0.4376,0.4457,-0.5249,0.5781,12.4,11.6,6.5,1023,bed,0
-0.01,-0.006,0.046,0.436,0.4489,-0.5237,0.5778,12.9,10.6,7.3,1023,bed,0
0.0,-0.006,0.055,0.4346,0.4521,-0.5223,0.5777,13.8,9.6,8.0,1023,bed,0
0.006,-0.009,0.059,0.4333,0.4552,-0.5207,0.5777,14.5,8.5,8.4,1023,bed,0
0.003,-0.011,0.065,0.4322,0.4581,-0.5188,0.5779,14.9,7.3,8.8,1023,bed,0
-0.003,-0.015,0.066,0.4312,0.461,-0.5168,0.5782,14.2,6.3,9.1,1023,bed,0
-0.008,-0.01,0.062,0.4305,0.4635,-0.5149,0.5784,11.9,5.0,9.4,1023,bed,0
-0.005,-0.017,0.068,0.4302,0.4658,-0.513,0.5785,9.4,3.7,9.5,1023,bed,0
0.012,-0.023,0.058,0.43,0.4677,-0.5114,0.5785,7.6,2.8,9.6,1023,bed,0
0.035,-0.038,0.053,0.4299,0.4695,-0.5099,0.5785,7.4,2.5,8.8,0,bed,0
0.037,-0.047,0.05,0.4294,0.4712,-0.5084,0.5787,10.1,3.1,8.2,0,bed,0
0.032,-0.057,0.05,0.4286,0.4731,-0.5067,0.5793,14.4,4.1,7.8,0,bed,0
0.02,-0.072,0.048,0.4271,0.4754,-0.5047,0.5802,20.2,5.8,7.9,0,bed,0
0.008,-0.084,0.047,0.425,0.4784,-0.5021,0.5815,26.7,7.5,8.7,0,bed,0
0.002,-0.097,0.048,0.4221,0.482,-0.4991,0.5833,33.1,9.1,9.1,0,bed,0
0.004,-0.099,0.045,0.4186,0.4861,-0.4956,0.5854,38.3,10.6,8.4,0,bed,0
0.011,-0.113,0.049,0.4144,0.4905,-0.4918,0.5879,42.7,12.0,7.4,0,bed,0
0.017,-0.129,0.049,0.4095,0.4951,-0.4877,0.5909,48.3,13.5,6.0,0,bed,0
0.02,-0.137,0.049,0.4038,0.5001,-0.4832,0.5943,54.0,14.7,4.7,0,bed,0
0.037,-0.134,0.047,0.3973,0.5052,-0.4783,0.5982,59.6,15.2,3.5,0,bed,0
0.055,-0.137,0.046,0.3903,0.5107,-0.4729,0.6025,64.9,15.7,2.6,0,bed,0
0.065,-0.141,0.047,0.3831,0.5172,-0.4666,0.6065,70.2,15.5,2.0,0,bed,0
0.07,-0.14,0.044,0.3754,0.5236,-0.4599,0.6109,73.5,14.8,1.7,0,bed,0
0.051,-0.135,0.035,0.3672,0.5295,-0.453,0.616,75.8,13.8,2.1,0,bed,0
0.038,-0.139,0.029,0.3589,0.5352,-0.4457,0.6213,77.9,12.1,3.6,0,bed,0
0.009,-0.136,0.025,0.3507,0.5408,-0.4377,0.6266,79.1,9.7,5.9,0,bed,0
-0.011,-0.13,0.018,0.3431,0.5463,-0.4293,0.6319,78.2,6.4,8.2,1023,bed,0
-0.025,-0.118,-0.004,0.3362,0.5514,-0.4207,0.637,73.3,2.5,9.8,1023,bed,0
-0.041,-0.119,-0.021,0.3302,0.5559,-0.4124,0.6416,66.2,-0.6,10.0,1023,bed,0
-0.044,-0.122,-0.04,0.3252,0.5595,-0.4049,0.6458,58.3,-3.6,8.9,1023,bed,0
-0.036,-0.127,-0.053,0.3208,0.5623,-0.3983,0.6497,53.0,-5.3,6.8,1023,bed,0
-0.016,-0.133,-0.074,0.3166,0.5647,-0.3919,0.6536,50.1,-6.1,3.5,1023,bed,0
0.001,-0.133,-0.085,0.3126,0.5666,-0.3856,0.6575,50.2,-5.8,-0.2,1023,bed,0
0.009,-0.133,-0.097,0.308,0.5684,-0.3795,0.6617,53.0,-5.1,-4.5,1023,bed,0
0.016,-0.125,-0.101,0.3024,0.5701,-0.3734,0.6662,57.6,-4.0,-8.1,1023,bed,0
0.019,-0.116,-0.114,0.2957,0.5721,-0.3671,0.671,63.7,-3.2,-10.9,1023,bed,0
0.002,-0.121,-0.126,0.2878,0.5744,-0.3601,0.6763,73.2,-2.2,-12.9,1023,bed,0
-0.014,-0.133,-0.118,0.2781,0.5774,-0.3517,0.6822,89.7,-1.3,-14.0,1023,bed,0
-0.024,-0.109,-0.123,0.2665,0.581,-0.3414,0.689,104.3,-1.6,-15.4,1023,bed,0
-0.039,-0.073,-0.122,0.2535,0.5847,-0.3297,0.6964,112.7,-2.1,-17.6,0,bed,0
-0.046,-0.033,-0.102,0.2394,0.5889,-0.3184,0.7031,109.7,-2.8,-20.0,0,bed,0
-0.074,-0.006,-0.085,0.2262,0.5923,-0.308,0.7092,96.7,-3.3,-22.0,0,bed,0
-0.112,0.016,-0.077,0.2145,0.5947,-0.2995,0.7145,78.7,-4.2,-23.7,0,bed,0
-0.11,0.021,-0.078,0.2048,0.5961,-0.2933,0.7187,59.4,-5.3,-25.4,0,bed,0
-0.056,0.038,-0.073,0.1966,0.5966,-0.2895,0.7221,42.2,-5.2,-28.5,0,bed,0
0.023,0.038,-0.06,0.1895,0.5964,-0.2881,0.7247,29.0,-3.0,-34.5,0,bed,0
0.042,0.037,-0.041,0.1822,0.5957,-0.2886,0.727,24.6,0.1,-41.5,0,bed,0
0.02,0.035,-0.029,0.174,0.5949,-0.2898,0.7291,27.8,3.1,-47.0,0,bed,0
-0.006,0.033,-0.021,0.1643,0.5944,-0.2905,0.7315,40.0,5.2,-49.3,0,bed,0
-0.038,0.048,-0.019,0.1531,0.5944,-0.2893,0.7344,55.1,5.7,-48.7,0,bed,0
-0.032,0.072,-0.03,0.1408,0.5948,-0.2861,0.7378,66.7,5.7,-46.8,0,bed,0
-0.021,0.096,-0.036,0.128,0.5956,-0.2813,0.7413,72.3,6.0,-43.9,0,bed,0
-0.026,0.117,-0.047,0.1153,0.5967,-0.2757,0.7446,72.6,6.9,-40.4,0,bed,0
-0.028,0.131,-0.044,0.1035,0.5981,-0.2698,0.7474,68.5,9.4,-35.0,0,bed,0
-0.037,0.112,-0.037,0.0928,0.6001,-0.2637,0.7494,65.7,13.4,-27.5,0,bed,0
-0.03,0.083,-0.026,0.0829,0.6028,-0.2571,0.7507,67.2,17.7,-19.0,0,bed,0
-0.01,0.07,-0.022,0.0732,0.6062,-0.2492,0.7516,73.2,22.0,-11.1,0,bed,0
0.003,0.054,-0.016,0.0633,0.6104,-0.2396,0.7522,83.3,26.3,-5.3,1023,bed,0
0.012,0.037,-0.005,0.0525,0.6151,-0.2281,0.7528,96.6,29.1,-1.1,1023,bed,0
0.014,0.033,0.007,0.0404,0.6201,-0.2143,0.7535,110.6,30.9,1.9,1023,bed,0
0.021,0.033,0.013,0.0273,0.6251,-0.1986,0.7542,121.0,31.5,4.1,1023,bed,0
0.029,0.044,0.016,0.0135,0.6299,-0.1815,0.755,125.5,31.0,4.8,1023,bed,0
0.046,0.046,0.017,-0.0001,0.6342,-0.1642,0.7554,123.6,30.2,4.7,1023,bed,0
0.061,0.045,0.009,-0.0135,0.6381,-0.1474,0.7555,118.5,29.1,4.7,1023,bed,0
0.087,0.029,0.004,-0.0263,0.6416,-0.1312,0.7552,113.7,28.3,5.4,1023,bed,0
0.12,0.007,0.006,-0.0387,0.6447,-0.1156,0.7545,111.3,28.3,6.7,1023,bed,0
0.155,-0.016,-0.01,-0.0511,0.6477,-0.1001,0.7535,112.4,29.1,8.0,1023,bed,0
0.184,-0.033,-0.024,-0.0639,0.6506,-0.0842,0.7519,118.2,30.9,9.2,1023,bed,0
0.182,-0.06,-0.052,-0.0777,0.6536,-0.0673,0.7497,128.3,33.6,10.9,1023,bed,0
0.132,-0.093,-0.085,-0.0921,0.6564,-0.0478,0.7472,143.5,36.4,13.7,1023,bed,0
0.052,-0.106,-0.119,-0.1079,0.6586,-0.0255,0.7441,161.8,38.0,17.7,1023,bed,0
0.001,-0.105,-0.153,-0.1249,0.6602,-0.0006,0.7405,173.7,38.0,20.4,1023,bed,0
0.003,-0.088,-0.182,-0.1424,0.661,0.0252,0.7362,175.8,38.0,19.5,1023,bed,0
0.013,-0.081,-0.19,-0.1599,0.6612,0.0502,0.7311,167.4,38.6,13.5,0,bed,0
0.0,-0.071,-0.189,-0.177,0.6613,0.0729,0.7251,155.9,39.2,4.3,0,bed,0
-0.017,-0.066,-0.169,-0.1939,0.6614,0.093,0.7185,146.6,37.9,-4.8,0,bed,0
-0.039,-0.077,-0.179,-0.211,0.6609,0.1112,0.7115,142.6,32.8,-12.4,0,bed,0
-0.069,-0.039,-0.204,-0.2287,0.6594,0.1281,0.7045,141.6,26.1,-18.3,0,bed,0
-0.078,0.012,-0.205,-0.2466,0.6569,0.1435,0.6978,133.3,18.4,-23.9,0,bed,0
-0.083,0.059,-0.208,-0.2638,0.6537,0.1563,0.6917,117.2,9.2,-29.2,0,bed,0
-0.073,0.132,-0.215,-0.2794,0.6502,0.1654,0.6868,90.6,0.4,-33.4,0,bed,0
-0.071,0.156,-0.229,-0.2921,0.6471,0.1703,0.6832,61.2,-5.4,-35.4,0,bed,0
-0.063,0.163,-0.21,-0.302,0.6448,0.1716,0.6808,37.3,-9.2,-36.1,0,bed,0
-0.005,0.178,-0.194,-0.3096,0.6432,0.1702,0.6792,19.0,-10.4,-35.5,0,bed,0
0.037,0.171,-0.177,-0.3155,0.6423,0.1674,0.678,9.6,-9.2,-33.6,0,bed,0
0.054,0.159,-0.164,-0.3206,0.6418,0.1643,0.6769,8.7,-7.4,-31.1,0,bed,0
0.054,0.147,-0.161,-0.3255,0.6411,0.162,0.6757,14.8,-6.9,-27.1,0,bed,0
0.042,0.144,-0.133,-0.3307,0.6399,0.1612,0.6745,24.0,-7.1,-22.0,0,bed,0
0.058,0.142,-0.109,-0.3365,0.6378,0.162,0.6735,33.3,-8.2,-16.9,0,bed,0
0.088,0.141,-0.078,-0.3426,0.6349,0.1642,0.6726,41.0,-10.0,-12.6,0,bed,0
0.116,0.124,-0.053,-0.3485,0.6315,0.1682,0.6718,46.3,-11.6,-9.9,1023,bed,0
0.115,0.117,-0.041,-0.3546,0.6274,0.173,0.6712,50.8,-12.5,-8.5,1023,bed,0
0.098,0.108,-0.042,-0.361,0.623,0.1781,0.6706,52.4,-13.6,-8.6,1023,bed,0
0.056,0.075,-0.064,-0.3676,0.6185,0.1831,0.6698,54.7,-14.4,-8.3,1023,bed,0
-0.002,0.087,-0.049,-0.3744,0.6138,0.1885,0.6688,54.9,-14.0,-8.2,1023,bed,0
-0.05,0.078,-0.022,-0.3811,0.6091,0.1937,0.6679,54.1,-13.5,-8.9,1023,bed,0
-0.067,0.066,-0.016,-0.388,0.6043,0.1987,0.6668,55.5,-13.2,-11.6,1023,bed,0
-0.067,0.067,-0.03,-0.3956,0.5995,0.2036,0.6652,58.9,-12.6,-16.5,1023,bed,0
-0.071,0.08,-0.049,-0.4039,0.5948,0.2082,0.6629,59.1,-12.8,-23.1,1023,bed,0
-0.066,0.093,-0.069,-0.4127,0.5905,0.212,0.6601,55.8,-13.0,-29.8,1023,bed,0
-0.089,0.052,-0.084,-0.4218,0.5868,0.2147,0.6569,51.3,-13.3,-35.8,1023,bed,0
-0.126,0.019,-0.077,-0.4311,0.5837,0.2159,0.6532,46.8,-13.0,-41.9,1023,bed,0
-0.143,-0.079,-0.104,-0.4417,0.5807,0.2168,0.6484,65.4,-12.2,-48.3,1023,bed,0
-0.166,-0.174,-0.174,-0.4572,0.5742,0.2209,0.6421,117.1,-12.4,-54.5,1023,bed,0
-0.176,-0.033,-0.21,-0.478,0.5637,0.2294,0.6332,150.5,-14.8,-63.0,1023,bed,0
-0.215,0.062,-0.156,-0.5012,0.5517,0.238,0.6226,151.0,-17.1,-76.3,1023,bed,0
-0.316,0.016,-0.068,-0.5244,0.5407,0.2434,0.6109,129.7,-21.1,-90.2,0,bed,0
-0.434,0.052,0.003,-0.5463,0.5314,0.244,0.5995,98.0,-31.1,-102.0,0,bed,0
-0.479,0.067,0.08,-0.5661,0.525,0.2382,0.589,52.3,-39.6,-116.9,0,bed,0
-0.503,0.058,0.052,-0.5833,0.5227,0.2253,0.5792,9.4,-47.7,-133.5,0,bed,0
-0.467,0.205,-0.08,-0.5985,0.5238,0.206,0.57,-25.7,-57.4,-145.3,0,bed,0
-0.407,0.239,-0.126,-0.612,0.5264,0.1823,0.5612,-41.3,-66.5,-150.8,0,bed,0
-0.337,0.202,-0.132,-0.6251,0.528,0.1569,0.5528,-37.3,-77.5,-148.7,0,bed,0
-0.231,0.21,-0.173,-0.638,0.5277,0.1311,0.5451,-31.6,-84.7,-141.8,0,bed,0
-0.148,0.281,-0.201,-0.6493,0.5259,0.1062,0.5389,-33.9,-88.8,-121.4,0,bed,0
-0.085,0.302,-0.129,-0.6577,0.5228,0.0826,0.5358,-32.6,-97.2,-92.3,0,bed,0
-0.034,0.48,-0.054,-0.6634,0.5175,0.0614,0.5368,-28.1,-105.4,-59.8,0,bed,0
0.028,0.626,-0.08,-0.6654,0.5118,0.0417,0.5417,-42.4,-109.5,-29.0,0,bed,0
0.049,0.548,-0.089,-0.6624,0.5073,0.0225,0.5506,-59.3,-115.1,3.8,0,bed,0
0.069,0.677,-0.165,-0.6551,0.5029,0.0052,0.5637,-60.1,-118.5,39.3,0,bed,0
0.075,0.612,-0.184,-0.6442,0.4977,-0.0094,0.5805,-59.4,-122.0,70.5,0,bed,0
0.049,0.502,-0.178,-0.6298,0.4919,-0.0216,0.6006,-58.7,-121.9,102.6,0,bed,0
0.05,0.44,-0.194,-0.6114,0.4859,-0.0303,0.6237,-53.9,-116.5,138.0,1023,bed,0
-0.005,0.324,-0.21,-0.5892,0.4798,-0.0347,0.6491,-49.1,-106.0,169.8,1023,bed,0
-0.057,0.045,-0.238,-0.5633,0.4743,-0.0346,0.6755,-43.4,-88.8,197.0,1023,bed,0
-0.13,0.137,-0.305,-0.5344,0.4703,-0.0303,0.7015,-49.1,-68.6,211.9,1023,bed,0
-0.224,0.158,-0.292,-0.5023,0.47,-0.0265,0.7252,-80.2,-50.8,208.7,1023,bed,0
-0.262,-0.31,-0.225,-0.47,0.4716,-0.0238,0.7456,-65.2,-40.5,194.7,1023,bed,0
-0.175,-0.382,-0.233,-0.441,0.471,-0.0165,0.7637,-27.3,-30.7,188.1,1023,bed,0
-0.266,-0.288,-0.254,-0.4151,0.4692,-0.0062,0.7793,-15.4,-24.0,172.2,1023,bed,0
-0.261,-0.453,-0.116,-0.3918,0.4681,0.0013,0.792,-38.2,-20.3,139.0,1023,bed,0
-0.186,-0.516,-0.114,-0.3699,0.4688,0.0024,0.802,-70.3,-22.7,112.2,1023,bed,0
-0.069,-0.403,-0.246,-0.3489,0.4704,-0.003,0.8104,-98.3,-27.1,89.1,1023,bed,0
0.057,-0.316,-0.318,-0.3284,0.4737,-0.0143,0.817,-132.1,-22.8,67.7,1023,bed,0
0.139,-0.299,-0.379,-0.307,0.48,-0.0328,0.821,-175.7,-13.5,49.2,1023,bed,0
0.201,-0.462,-0.288,-0.286,0.4881,-0.0559,0.8226,-179.4,-8.6,32.0,0,bed,0
0.244,-0.517,-0.206,-0.2679,0.4957,-0.0782,0.8224,-153.9,-3.1,18.8,0,bed,0
0.218,-0.478,-0.236,-0.2544,0.5019,-0.0961,0.8209,-112.4,3.0,8.7,0,bed,0
0.233,-0.37,-0.185,-0.2456,0.5071,-0.1091,0.8188,-87.3,9.4,-1.5,0,bed,0
-0.042,-0.682,0.048,-0.2403,0.5119,-0.1249,0.8152,-101.8,3.9,-47.1,0,bed,0
0.043,-0.332,-0.007,-0.2389,0.5151,-0.1473,0.8098,-145.0,-5.2,-71.6,0,bed,0
0.065,-0.28,-0.108,-0.2355,0.519,-0.1752,0.8027,-143.0,-1.0,-74.1,0,bed,0
0.085,-0.436,-0.091,-0.2354,0.5214,-0.1994,0.7955,-93.3,1.9,-83.7,0,bed,0
0.009,-0.462,-0.112,-0.2421,0.5209,-0.215,0.7897,-24.1,0.0,-85.3,0,bed,0
-0.071,-0.269,-0.102,-0.2537,0.5179,-0.2234,0.7857,4.9,1.5,-89.4,0,bed,0
-0.055,-0.184,-0.109,-0.2668,0.5144,-0.2315,0.7813,-3.4,2.5,-96.7,0,bed,0
-0.015,-0.012,-0.118,-0.2789,0.5115,-0.2412,0.776,-13.4,3.3,-91.7,0,bed,0
-0.113,0.016,-0.17,-0.2889,0.509,-0.2515,0.7707,-23.4,-1.0,-82.4,0,bed,0
-0.178,0.036,-0.112,-0.2976,0.5071,-0.2605,0.7656,-12.2,9.4,-70.0,0,bed,0
-0.172,0.185,0.063,-0.3068,0.5054,-0.2656,0.7614,14.4,9.4,-62.7,0,bed,0
-0.092,0.189,0.055,-0.3184,0.5024,-0.268,0.7578,28.7,11.7,-72.2,0,bed,0
-0.076,0.215,0.11,-0.3299,0.4994,-0.2704,0.7539,13.2,11.7,-62.9,0,bed,0
-0.21,0.243,0.176,-0.3375,0.4982,-0.2741,0.75,-9.4,11.0,-41.7,0,bed,0
-0.126,-0.132,0.042,-0.3428,0.4993,-0.2799,0.7448,-23.4,18.7,-56.1,1023,bed,0
0.105,-0.003,-0.057,-0.349,0.501,-0.2866,0.7381,-14.1,24.7,-50.4,1023,bed,0
0.036,-0.022,-0.056,-0.3559,0.5026,-0.2906,0.7322,-2.5,26.4,-43.9,1023,bed,0
-0.036,-0.147,-0.003,-0.3627,0.5042,-0.2931,0.7268,2.7,27.4,-41.1,1023,bed,0
0.008,-0.149,0.049,-0.3703,0.5049,-0.2945,0.7219,14.4,27.3,-42.3,1023,bed,0
0.333,-0.138,-0.087,-0.3786,0.5049,-0.2946,0.7175,19.0,26.4,-52.8,1023,bed,0
0.023,-0.039,-0.024,-0.3883,0.5041,-0.2957,0.7124,5.4,20.3,-43.7,1023,bed,0
-0.189,0.119,-0.08,-0.3929,0.5047,-0.2975,0.7087,-6.7,15.2,-27.1,1023,bed,0
-0.167,0.062,-0.143,-0.3975,0.5047,-0.3005,0.7048,-1.2,10.1,-40.0,1023,bed,0
-0.085,0.123,-0.122,-0.4031,0.5036,-0.303,0.7014,3.7,7.8,-40.6,1023,bed,0
-0.061,0.024,-0.131,-0.409,0.5018,-0.3058,0.6981,4.4,5.3,-43.7,1023,bed,0
-0.004,-0.049,-0.059,-0.4149,0.5,-0.309,0.6944,8.0,2.9,-45.6,1023,bed,0
0.034,-0.094,-0.009,-0.4217,0.4971,-0.3123,0.6909,13.3,1.7,-47.2,1023,bed,0
0.081,-0.025,0.041,-0.429,0.4934,-0.3153,0.6877,13.0,0.6,-45.6,1023,bed,0
0.288,0.191,-0.047,-0.4352,0.4898,-0.318,0.6851,8.3,-0.4,-44.4,0,bed,0
0.006,-0.142,-0.034,-0.4417,0.4864,-0.3228,0.6811,-4.7,-6.8,-44.8,0,bed,0
-0.068,0.04,-0.078,-0.4448,0.4846,-0.3271,0.6783,-8.1,-4.5,-37.1,0,bed,0
-0.054,-0.097,-0.101,-0.449,0.4825,-0.3317,0.6748,5.7,-4.7,-44.2,0,bed,0
-0.235,0.138,0.001,-0.4537,0.4792,-0.3335,0.6731,16.5,-5.1,-25.8,0,bed,0
-0.151,0.174,-0.007,-0.4583,0.4759,-0.3346,0.6718,11.9,-1.9,-37.2,0,bed,0
-0.081,0.211,0.061,-0.4629,0.4731,-0.3369,0.6695,1.9,-1.3,-34.4,0,bed,0
-0.043,-0.069,0.114,-0.4669,0.4705,-0.3397,0.6671,-1.9,-3.5,-37.5,0,bed,0
0.021,-0.165,0.097,-0.4713,0.4676,-0.3433,0.6642,-0.5,-2.1,-39.7,0,bed,0
0.076,-0.025,0.054,-0.4766,0.4645,-0.3468,0.6608,1.0,2.3,-40.5,0,bed,0
0.008,0.097,-0.02,-0.4815,0.4624,-0.3497,0.6572,-4.4,4.9,-38.6,0,bed,0
-0.016,0.059,-0.014,-0.4851,0.4617,-0.3532,0.6531,-15.1,4.5,-36.3,0,bed,0
-0.002,-0.087,-0.043,-0.4876,0.4619,-0.3581,0.6484,-18.8,2.5,-34.5,0,bed,0
-0.007,-0.104,-0.016,-0.4902,0.4617,-0.3628,0.644,-11.4,1.1,-33.8,0,bed,0
-0.023,-0.004,-0.038,-0.4929,0.461,-0.3666,0.6403,-7.0,1.4,-32.6,0,bed,0
-0.039,-0.006,-0.001,-0.4963,0.4596,-0.3697,0.6369,-3.9,-0.1,-36.2,0,bed,0
-0.065,0.0,-0.069,-0.499,0.4583,-0.373,0.6337,-7.3,-2.4,-33.9,0,bed,0
-0.063,-0.116,-0.088,-0.5017,0.4568,-0.3768,0.6304,-1.2,-4.6,-34.5,1023,bed,0
0.001,-0.091,-0.101,-0.5055,0.4541,-0.3797,0.6275,18.5,-3.6,-38.3,1023,bed,0
0.066,-0.078,-0.099,-0.5115,0.4495,-0.3808,0.6254,34.6,-1.1,-40.8,1023,bed,0
0.053,0.015,-0.058,-0.519,0.4434,-0.3799,0.624,49.0,2.0,-41.4,1023,bed,0
-0.021,0.042,0.026,-0.5275,0.4364,-0.3778,0.6233,46.6,-0.1,-42.3,1023,bed,0
-0.014,-0.006,0.032,-0.5349,0.4297,-0.3764,0.6224,32.9,-3.8,-41.3,1023,bed,0
-0.011,0.025,0.04,-0.5409,0.4237,-0.3767,0.6211,22.9,-6.8,-39.4,1023,bed,0
0.02,0.095,0.024,-0.5461,0.4184,-0.378,0.6194,12.2,-8.0,-38.3,1023,bed,0
0.049,0.058,0.039,-0.5502,0.4138,-0.3804,0.6173,4.4,-9.6,-32.9,1023,bed,0
0.002,-0.092,0.035,-0.5528,0.4106,-0.3839,0.6151,-7.2,-12.6,-26.7,1023,bed,0
0.002,-0.22,0.0,-0.5538,0.4084,-0.3881,0.613,-4.5,-13.8,-20.7,1023,bed,0
0.019,-0.082,-0.041,-0.555,0.406,-0.3907,0.6118,11.7,-9.4,-17.0,1023,bed,0
0.111,0.153,-0.013,-0.5575,0.4024,-0.391,0.6117,19.5,-2.6,-12.3,1023,bed,0
0.063,-0.01,0.074,-0.5599,0.3997,-0.3897,0.6121,17.5,-0.4,-6.5,1023,bed,0
-0.02,-0.121,0.046,-0.5614,0.3975,-0.3888,0.6128,8.1,-3.6,-3.5,0,bed,0
-0.103,-0.067,-0.005,-0.5613,0.3969,-0.3892,0.613,-1.4,-6.1,-5.3,0,bed,0
-0.088,0.081,-0.05,-0.5608,0.397,-0.3903,0.6126,-6.8,-5.3,-10.7,0,bed,0
-0.005,0.179,-0.055,-0.5611,0.3966,-0.3922,0.6115,-8.3,-5.1,-15.1,0,bed,0
0.009,0.089,-0.008,-0.5616,0.3963,-0.3949,0.6094,-16.3,-2.8,-15.9,0,bed,0
-0.01,-0.057,0.071,-0.5623,0.3961,-0.3974,0.6073,-10.0,-2.0,-13.9,0,bed,0
-0.028,-0.059,0.082,-0.563,0.3955,-0.3989,0.6061,-5.4,-4.1,-10.6,0,bed,0
-0.042,0.037,0.042,-0.5631,0.395,-0.4007,0.6051,-16.4,-7.3,-10.7,0,bed,0
-0.034,0.142,-0.036,-0.5617,0.3958,-0.4046,0.6032,-34.7,-11.1,-11.5,0,bed,0
-0.005,0.15,-0.054,-0.5587,0.3983,-0.4111,0.6,-54.0,-13.3,-10.4,0,bed,0
-0.043,0.101,-0.038,-0.5541,0.4024,-0.4192,0.5959,-61.9,-14.9,-4.0,0,bed,0
-0.047,0.06,-0.051,-0.5481,0.4073,-0.4273,0.5924,-64.3,-16.8,3.4,0,bed,0
-0.018,0.012,-0.076,-0.5413,0.4124,-0.4349,0.5895,-58.3,-17.4,8.7,0,bed,0
-0.027,-0.054,-0.114,-0.5349,0.417,-0.4416,0.5873,-43.9,-15.5,9.4,0,bed,0
0.08,-0.115,-0.101,-0.5308,0.4185,-0.4456,0.5868,-10.5,-16.2,7.4,0,bed,0
0.004,-0.024,-0.069,-0.5282,0.4186,-0.4473,0.5878,-0.9,-14.3,6.8,0,bed,0
-0.039,-0.024,-0.036,-0.5259,0.4185,-0.4487,0.5888,-8.9,-12.9,3.9,0,bed,0
-0.018,-0.016,-0.062,-0.5234,0.4191,-0.4513,0.5887,-16.4,-11.7,-1.5,0,bed,0
0.002,-0.056,-0.065,-0.5217,0.4195,-0.4542,0.5877,-8.2,-7.8,-5.0,1023,bed,0
0.011,-0.062,-0.058,-0.5216,0.4187,-0.4555,0.5873,10.4,-4.0,-6.6,1023,bed,0
0.016,-0.051,-0.022,-0.5235,0.4162,-0.4544,0.5883,30.4,-1.4,-6.4,1023,bed,0
0.013,-0.034,0.0,-0.5267,0.4121,-0.4514,0.5905,39.7,-0.8,-6.7,1023,bed,0
0.08,-0.074,0.041,-0.5305,0.4074,-0.4476,0.5933,57.1,-3.9,-7.8,1023,bed,0
0.025,0.031,0.033,-0.5359,0.4005,-0.4416,0.5976,64.2,-1.0,-8.3,1023,bed,0
0.024,0.082,0.063,-0.5412,0.3936,-0.4354,0.602,57.5,-1.8,-6.5,1023,bed,0
0.002,0.089,0.067,-0.5452,0.3878,-0.4306,0.6057,37.1,-4.9,-4.5,1023,bed,0
0.015,0.113,0.031,-0.5471,0.3839,-0.4284,0.6079,13.7,-7.3,-2.5,1023,bed,0
0.017,0.099,0.009,-0.5471,0.3823,-0.4289,0.6085,-8.1,-8.7,-2.4,1023,bed,0
0.027,0.049,0.017,-0.546,0.3821,-0.4314,0.608,-17.1,-10.5,-2.8,1023,bed,0
0.039,0.025,0.031,-0.5444,0.3821,-0.4346,0.607,-20.1,-12.0,-1.7,1023,bed,0
0.061,0.014,0.044,-0.5426,0.3821,-0.438,0.6062,-18.7,-12.3,0.5,1023,bed,0
0.039,-0.019,0.029,-0.5408,0.3819,-0.4409,0.6059,-14.2,-12.6,1.7,1023,bed,0
-0.007,-0.005,-0.01,-0.5388,0.3817,-0.4433,0.606,-11.1,-13.5,2.6,1023,bed,0
-0.028,0.019,-0.015,-0.5365,0.3818,-0.4456,0.6063,-13.2,-13.2,2.2,0,bed,0
-0.059,0.026,-0.026,-0.5339,0.3826,-0.4484,0.606,-21.6,-12.9,0.9,0,bed,0
-0.046,0.017,-0.03,-0.5309,0.384,-0.4521,0.6051,-27.0,-12.4,0.0,0,bed,0
0.004,0.0,-0.008,0.8639,-0.2715,-0.4212,0.0497,-2.5,-1.2,-0.8,0,chair,0
0.004,0.003,-0.01,0.8626,-0.2701,-0.4247,0.0489,-1.4,-1.0,-0.6,0,chair,0
0.004,0.005,-0.005,0.8614,-0.2686,-0.4281,0.0482,-1.0,-0.5,-0.5,0,chair,0
0.005,0.008,-0.005,0.8603,-0.267,-0.4314,0.0476,-1.4,-0.2,-0.3,0,chair,0
0.004,0.009,-0.005,0.8591,-0.2656,-0.4347,0.0469,-1.8,-0.2,-0.4,0,chair,0
0.003,0.013,-0.004,0.858,-0.2644,-0.4378,0.0462,-2.5,-0.1,-0.3,0,chair,0
0.006,0.007,-0.003,0.8569,-0.2632,-0.4407,0.0456,-2.4,-0.4,-0.1,0,chair,0
0.007,0.007,-0.006,0.856,-0.2621,-0.4433,0.0449,-2.0,-0.2,-0.2,0,chair,0
0.008,0.004,-0.001,0.855,-0.2608,-0.446,0.0444,-1.5,-0.3,-0.1,0,chair,0
0.007,0.006,-0.007,0.854,-0.2596,-0.4485,0.0439,-0.9,-0.2,-0.1,0,chair,0
0.009,0.01,0.0,0.8532,-0.2583,-0.4509,0.0435,-0.7,-0.2,-0.1,0,chair,0
0.008,0.012,-0.008,0.8523,-0.257,-0.4533,0.0431,-0.9,-0.1,-0.1,0,chair,0
0.008,0.007,-0.005,0.8515,-0.2559,-0.4554,0.0428,-0.8,-0.1,0.0,0,chair,0
0.002,0.004,-0.004,0.8508,-0.2549,-0.4574,0.0425,-0.6,0.0,-0.1,0,chair,0
0.005,0.006,-0.008,0.85,-0.2538,-0.4594,0.0423,-0.5,0.2,0.0,0,chair,0
0.009,0.005,-0.008,0.8493,-0.2525,-0.4616,0.042,0.0,0.0,0.0,0,chair,0
0.005,0.007,-0.003,0.8487,-0.2512,-0.4634,0.0419,0.0,0.0,0.0,0,chair,0
0.005,0.006,-0.005,0.8481,-0.2502,-0.465,0.0418,0.0,0.0,0.0,1023,chair,0
0.008,0.007,-0.006,0.8475,-0.249,-0.4667,0.0416,0.0,0.0,0.0,1023,chair,0
0.006,0.008,-0.005,0.847,-0.2477,-0.4684,0.0415,0.0,0.0,0.0,1023,chair,0
0.002,0.013,-0.01,0.8464,-0.2466,-0.4701,0.0414,0.0,0.0,0.0,1023,chair,0
0.004,0.011,-0.003,0.8459,-0.2453,-0.4717,0.0414,0.0,0.0,0.0,1023,chair,0
0.004,0.01,-0.007,0.8454,-0.244,-0.4731,0.0413,0.0,0.0,0.0,1023,chair,0
0.005,0.004,-0.007,0.8451,-0.2428,-0.4744,0.0413,0.0,0.0,0.0,1023,chair,0
0.005,0.013,-0.003,0.8447,-0.2418,-0.4755,0.0413,-0.6,-0.1,-0.1,1023,chair,0
0.005,0.011,-0.005,0.8442,-0.241,-0.4768,0.0413,-0.9,-0.2,-0.1,1023,chair,0
0.005,0.006,-0.006,0.844,-0.2402,-0.4777,0.0413,-1.1,-0.5,-0.2,1023,chair,0
0.004,0.005,0.0,0.8436,-0.2394,-0.4787,0.0413,-1.1,-0.5,-0.1,1023,chair,0
0.006,0.004,-0.004,0.8432,-0.2387,-0.4798,0.0413,-1.1,-0.5,0.0,1023,chair,0
0.009,0.005,-0.007,0.843,-0.2381,-0.4805,0.0414,-0.9,-0.5,-0.1,1023,chair,0
0.007,0.007,-0.011,0.8427,-0.2374,-0.4813,0.0415,-0.3,-0.7,0.0,1023,chair,0
0.008,0.011,-0.006,0.8425,-0.2367,-0.4819,0.0416,-0.3,-0.5,0.0,1023,chair,0
0.004,0.008,-0.012,0.8422,-0.2359,-0.4829,0.0417,-0.6,-0.4,0.0,1023,chair,0
0.002,0.011,-0.006,0.8418,-0.2353,-0.4839,0.0418,-0.9,-0.6,-0.1,1023,chair,0
0.004,0.006,-0.007,0.8415,-0.2346,-0.4848,0.0419,-0.5,-0.7,-0.2,1023,chair,0
0.005,0.006,-0.003,0.8412,-0.2337,-0.4856,0.0421,0.0,-0.5,-0.1,1023,chair,0
0.007,0.006,-0.006,0.8409,-0.233,-0.4864,0.0423,0.0,-0.5,-0.1,1023,chair,0
0.007,0.007,-0.008,0.8408,-0.2324,-0.4869,0.0425,-0.2,-0.5,0.0,0,chair,0
0.004,0.009,-0.008,0.8406,-0.2316,-0.4876,0.0427,-0.6,-0.3,0.0,0,chair,0
0.006,0.014,-0.003,0.8404,-0.2311,-0.4882,0.0429,-0.8,-0.4,0.0,0,chair,0
0.003,0.011,-0.001,0.8403,-0.2307,-0.4886,0.0431,-1.6,-0.4,-0.1,0,chair,0
0.003,0.006,-0.008,0.8401,-0.2303,-0.4891,0.0432,-2.3,0.0,-0.1,0,chair,0
0.008,0.007,-0.009,0.8399,-0.2302,-0.4895,0.0433,-2.8,-0.1,-0.1,0,chair,0
0.008,0.002,-0.009,0.8396,-0.2301,-0.4899,0.0434,-3.2,0.0,-0.3,0,chair,0
0.01,0.001,-0.009,0.8392,-0.2299,-0.4906,0.0435,-3.0,0.2,-0.3,0,chair,0
0.013,0.003,-0.009,0.8389,-0.23,-0.4911,0.0437,-2.7,0.2,-0.3,0,chair,0
0.007,0.001,-0.006,0.8385,-0.23,-0.4918,0.0439,-2.5,0.2,-0.3,0,chair,0
0.001,-0.013,0.003,0.8381,-0.2299,-0.4926,0.0441,-2.4,0.1,-0.8,0,chair,0
0.003,-0.015,-0.004,0.8379,-0.23,-0.4929,0.0445,-1.7,0.0,-1.8,0,chair,0
0.003,-0.01,0.002,0.8376,-0.23,-0.4932,0.0452,-0.4,-0.1,-2.3,0,chair,0
0.0,-0.014,0.015,0.8374,-0.2297,-0.4936,0.0459,-0.2,-0.4,-3.5,0,chair,0
-0.009,-0.013,0.016,0.8374,-0.2297,-0.4937,0.0469,0.1,-0.8,-4.6,0,chair,0
0.007,0.003,0.004,0.8374,-0.2293,-0.4937,0.048,1.3,-1.3,-5.3,0,chair,0
0.018,0.03,-0.011,0.8374,-0.2291,-0.4936,0.0492,-0.3,-0.7,-5.4,1023,chair,0
0.027,0.018,-0.022,0.8373,-0.2297,-0.4935,0.0502,-5.2,0.6,-5.5,1023,chair,0
0.021,0.0,-0.013,0.8367,-0.2306,-0.4939,0.051,-6.6,1.7,-5.4,1023,chair,0
0.02,0.002,-0.011,0.8361,-0.2312,-0.4947,0.0518,-2.3,1.8,-4.5,1023,chair,0
0.012,0.018,-0.011,0.8358,-0.231,-0.4951,0.0529,2.1,1.9,-3.0,1023,chair,0
0.008,0.025,-0.008,0.8357,-0.2302,-0.4956,0.054,2.5,2.3,-2.8,1023,chair,0
-0.009,0.027,-0.01,0.8355,-0.2295,-0.496,0.055,1.4,2.3,-2.6,1023,chair,0
-0.012,0.028,-0.016,0.8353,-0.229,-0.4966,0.0559,0.4,2.5,-2.6,1023,chair,0
-0.008,0.025,-0.016,0.8349,-0.2285,-0.4973,0.0566,-1.7,2.8,-2.5,1023,chair,0
-0.005,0.018,-0.012,0.8344,-0.2286,-0.498,0.0572,-4.2,3.1,-2.3,1023,chair,0
0.002,0.009,-0.01,0.8338,-0.2291,-0.4989,0.0576,-5.7,3.6,-2.2,1023,chair,0
0.011,0.013,-0.018,0.833,-0.2295,-0.4999,0.0579,-5.5,4.2,-1.7,0,chair,0
0.022,0.013,-0.018,0.8323,-0.2298,-0.5009,0.0584,-4.6,5.4,-0.8,0,chair,0
0.035,0.021,-0.026,0.8315,-0.2299,-0.5021,0.0588,-3.6,7.0,0.1,0,chair,0
0.041,0.018,-0.016,0.8308,-0.2296,-0.5034,0.0593,-3.1,8.6,1.2,0,chair,0
0.043,0.023,-0.011,0.8299,-0.2295,-0.5049,0.0596,-4.2,10.1,2.6,0,chair,0
0.038,0.023,0.007,0.8289,-0.2294,-0.5064,0.0598,-5.8,11.7,3.4,0,chair,0
0.04,0.019,-0.007,0.8276,-0.2294,-0.5086,0.0595,-7.7,13.0,4.5,0,chair,0
0.041,0.017,-0.016,0.8262,-0.2297,-0.5108,0.0592,-8.1,14.5,6.2,0,chair,0
0.037,0.012,-0.011,0.8246,-0.2298,-0.5134,0.0586,-8.6,15.8,7.7,0,chair,0
0.03,0.001,-0.003,0.823,-0.2299,-0.516,0.058,-8.5,17.2,8.8,0,chair,0
0.031,0.007,0.004,0.8211,-0.2297,-0.5192,0.0572,-7.5,17.9,9.2,0,chair,0
0.03,0.0,0.011,0.8193,-0.2294,-0.5223,0.0565,-6.4,18.6,9.3,0,chair,0
0.034,0.003,0.006,0.8175,-0.229,-0.5253,0.0561,-5.1,19.8,9.0,0,chair,0
0.032,0.006,0.0,0.8157,-0.2284,-0.5284,0.0559,-4.4,21.0,8.6,0,chair,0
0.027,0.009,-0.011,0.8138,-0.2276,-0.5316,0.0558,-2.4,22.0,8.5,0,chair,0
0.023,0.01,-0.011,0.8119,-0.2267,-0.5349,0.056,-1.3,22.7,8.7,0,chair,0
0.017,0.005,-0.009,0.8099,-0.2258,-0.5382,0.0563,-1.0,24.2,8.1,0,chair,0
0.011,-0.002,-0.006,0.8079,-0.2248,-0.5416,0.0568,0.2,25.4,7.2,0,chair,0
0.015,-0.014,-0.022,0.8058,-0.2235,-0.5452,0.0577,2.4,26.3,6.6,0,chair,0
0.003,-0.006,-0.032,0.8038,-0.2219,-0.5487,0.059,6.9,27.3,6.6,0,chair,0
0.01,0.009,-0.021,0.8017,-0.22,-0.5524,0.0606,6.8,28.9,6.6,0,chair,0
0.013,0.023,-0.031,0.7993,-0.2179,-0.5564,0.062,4.3,30.6,6.3,0,chair,0
0.025,0.013,-0.04,0.7966,-0.2162,-0.5608,0.0632,0.7,33.6,7.1,0,chair,0
0.032,0.018,-0.012,0.7934,-0.2149,-0.5658,0.064,-3.1,38.6,7.4,1023,chair,0
0.031,-0.026,0.016,0.7898,-0.2139,-0.571,0.0649,-3.0,42.4,7.9,1023,chair,0
0.028,-0.036,0.037,0.7861,-0.2127,-0.5765,0.0661,-1.3,43.1,7.9,1023,chair,0
0.054,-0.002,0.052,0.7825,-0.2111,-0.5817,0.0674,-0.2,44.0,8.7,1023,chair,0
0.071,-0.019,0.055,0.7789,-0.2093,-0.587,0.0684,-0.9,45.0,12.9,1023,chair,0
0.056,-0.062,0.051,0.7753,-0.2071,-0.5925,0.0689,0.1,46.4,18.2,1023,chair,0
0.014,-0.109,0.074,0.768,-0.1998,-0.6043,0.0701,12.9,50.3,24.5,1023,chair,0
-0.008,-0.103,0.09,0.7645,-0.194,-0.6104,0.0716,23.6,51.7,27.3,1023,chair,0
-0.036,-0.1,0.113,0.7612,-0.1866,-0.6166,0.0737,31.6,53.0,27.8,1023,chair,0
0.0,-0.016,0.069,0.7579,-0.1782,-0.6228,0.0759,29.1,55.3,28.4,1023,chair,0
-0.008,0.042,0.047,0.754,-0.1703,-0.6296,0.077,21.6,58.0,31.5,1023,chair,0
0.03,0.075,0.049,0.7498,-0.1626,-0.6366,0.077,17.1,59.2,34.2,1023,chair,0
0.04,0.113,0.059,0.7445,-0.155,-0.6449,0.075,5.5,60.8,36.3,1023,chair,0
0.036,0.114,0.08,0.7373,-0.1483,-0.6552,0.0704,-6.8,60.8,39.3,1023,chair,0
0.039,0.075,0.069,0.7305,-0.1435,-0.6644,0.0643,-22.9,61.2,41.5,1023,chair,0
0.034,0.055,0.013,0.7249,-0.1413,-0.6716,0.0578,-34.2,63.1,44.6,1023,chair,0
0.004,0.045,-0.049,0.7182,-0.1397,-0.6797,0.05,-38.0,66.4,49.4,1023,chair,0
-0.024,0.055,-0.066,0.7107,-0.1377,-0.6886,0.0413,-38.3,69.9,55.1,0,chair,0
-0.014,0.062,-0.058,0.7027,-0.1349,-0.6977,0.032,-38.0,72.8,60.6,0,chair,0
-0.021,0.07,-0.052,0.6943,-0.1315,-0.7071,0.022,-38.3,75.3,66.8,0,chair,0
-0.11,0.061,-0.049,0.6856,-0.1271,-0.7166,0.0114,-35.6,76.6,73.0,0,chair,0
-0.157,0.065,-0.043,0.6765,-0.1218,-0.7262,0.0002,-37.2,77.3,77.9,0,chair,0
-0.167,0.07,-0.036,0.6672,-0.1166,-0.7355,-0.0119,-44.5,76.9,81.0,0,chair,0
-0.169,0.084,-0.038,0.6576,-0.112,-0.7444,-0.0259,-54.9,74.7,84.8,0,chair,0
-0.272,0.015,-0.027,0.6481,-0.1079,-0.7527,-0.0407,-52.3,70.3,87.7,0,chair,0
-0.329,-0.051,-0.025,0.6395,-0.1025,-0.7599,-0.0542,-37.2,61.6,89.9,0,chair,0
-0.34,-0.088,-0.064,0.6319,-0.0955,-0.7662,-0.0653,-18.5,54.5,89.1,0,chair,0
-0.358,-0.138,-0.072,0.6253,-0.0866,-0.772,-0.0731,5.7,47.3,85.2,0,chair,0
-0.335,-0.123,-0.041,0.6203,-0.0755,-0.7769,-0.0763,37.1,40.7,82.1,0,chair,0
-0.271,0.003,-0.018,0.6164,-0.0619,-0.7812,-0.0769,41.6,34.2,73.0,0,chair,0
-0.252,-0.045,0.011,0.6136,-0.0507,-0.7841,-0.0768,35.9,26.5,57.7,0,chair,0
-0.162,-0.004,-0.001,0.612,-0.0417,-0.7861,-0.0751,36.2,19.8,41.3,0,chair,0
-0.113,0.022,-0.006,0.6115,-0.0356,-0.787,-0.0726,24.9,10.5,22.6,0,chair,0
-0.072,0.011,-0.005,0.6125,-0.0326,-0.7866,-0.07,16.2,-0.8,9.4,1023,chair,0
-0.023,0.158,-0.005,0.6149,-0.0322,-0.7849,-0.0691,-11.7,-6.3,1.4,1023,chair,0
0.004,0.097,-0.062,0.6165,-0.0363,-0.783,-0.073,-48.7,-8.9,-7.3,1023,chair,0
-0.007,-0.02,-0.028,0.6192,-0.0447,-0.78,-0.0778,-52.3,-15.4,-13.6,1023,chair,0
0.056,-0.025,-0.013,0.6233,-0.0527,-0.776,-0.0803,-34.2,-22.2,-15.9,1023,chair,0
0.109,0.043,-0.015,0.6279,-0.0594,-0.7716,-0.0811,-29.6,-24.9,-18.6,1023,chair,0
0.129,0.056,-0.041,0.637,-0.0748,-0.7623,-0.0853,-48.5,-26.2,-19.8,1023,chair,0
0.134,0.067,-0.036,0.6411,-0.0841,-0.7575,-0.0892,-57.0,-25.9,-20.6,1023,chair,0
0.148,0.079,-0.052,0.6449,-0.0942,-0.7525,-0.0944,-66.6,-26.4,-19.2,1023,chair,0
0.155,0.077,-0.06,0.6481,-0.1051,-0.7474,-0.1009,-72.2,-25.7,-17.3,1023,chair,0
0.145,0.062,-0.069,0.651,-0.1158,-0.7423,-0.1077,-69.9,-25.1,-14.7,1023,chair,0
0.127,0.045,-0.071,0.6537,-0.126,-0.7373,-0.1139,-63.0,-24.7,-11.7,1023,chair,0
0.11,0.037,-0.071,0.6563,-0.1348,-0.7326,-0.1192,-52.7,-24.5,-8.8,1023,chair,0
0.113,0.041,-0.073,0.6589,-0.1421,-0.7281,-0.1236,-44.7,-24.3,-6.2,1023,chair,0
0.121,0.047,-0.075,0.6614,-0.1484,-0.7239,-0.1275,-39.9,-23.0,-4.7,1023,chair,0
0.118,0.07,-0.068,0.6637,-0.1542,-0.72,-0.1312,-39.1,-21.5,-3.8,1023,chair,0
0.109,0.077,-0.055,0.6656,-0.1599,-0.7162,-0.1352,-40.8,-19.5,-3.1,0,chair,0
0.112,0.077,-0.039,0.6671,-0.1659,-0.7126,-0.1396,-44.3,-17.3,-2.0,0,chair,0
0.105,0.062,-0.029,0.6683,-0.1722,-0.709,-0.1444,-46.7,-15.8,-0.2,0,chair,0
0.105,0.053,-0.024,0.6693,-0.1782,-0.7055,-0.1497,-46.9,-14.7,1.7,0,chair,0
0.095,0.042,-0.023,0.67,-0.1841,-0.7022,-0.1549,-44.9,-13.8,3.8,0,chair,0
0.087,0.036,-0.021,0.6707,-0.1892,-0.699,-0.16,-40.3,-13.2,6.5,0,chair,0
0.087,0.023,-0.02,0.6714,-0.1935,-0.6961,-0.1645,-33.6,-12.9,8.5,0,chair,0
0.099,0.028,-0.011,0.6723,-0.1967,-0.6933,-0.1686,-28.2,-12.8,10.1,0,chair,0
0.092,0.029,-0.019,0.6733,-0.1991,-0.6907,-0.1726,-25.3,-12.3,11.8,0,chair,0
0.077,0.024,-0.014,0.6742,-0.2009,-0.6884,-0.1764,-22.2,-11.3,14.6,0,chair,0
0.057,0.011,-0.004,0.675,-0.202,-0.6863,-0.1802,-20.5,-10.6,17.7,0,chair,0
0.052,0.0,0.009,0.6757,-0.2026,-0.6844,-0.1841,-17.8,-9.7,21.3,0,chair,0
0.052,-0.007,0.003,0.6763,-0.2026,-0.6826,-0.1882,-17.3,-9.2,24.6,0,chair,0
0.035,-0.017,-0.004,0.6766,-0.2025,-0.6812,-0.1926,-18.8,-8.2,26.9,0,chair,0
0.023,-0.031,-0.008,0.6766,-0.2024,-0.6798,-0.1973,-19.7,-7.4,28.0,0,chair,0
0.015,-0.042,-0.008,0.6765,-0.2023,-0.6785,-0.2021,-20.6,-6.8,28.4,0,chair,0
0.012,-0.062,-0.006,0.6763,-0.2025,-0.6772,-0.2068,-20.4,-6.3,27.4,0,chair,0
0.008,-0.075,-0.009,0.6761,-0.2028,-0.6761,-0.2111,-18.7,-5.5,25.6,0,chair,0
0.0,-0.088,-0.015,0.6759,-0.2034,-0.6749,-0.2148,-17.4,-4.8,21.8,1023,chair,0
-0.004,-0.095,-0.011,0.6759,-0.2043,-0.6737,-0.2176,-14.5,-3.8,17.3,1023,chair,0
-0.005,-0.099,-0.024,0.676,-0.2055,-0.6727,-0.2194,-10.3,-3.2,11.8,1023,chair,0
-0.01,-0.105,-0.02,0.6764,-0.2068,-0.6717,-0.2199,-4.9,-2.4,6.2,1023,chair,0
-0.01,-0.109,-0.024,0.6771,-0.2081,-0.6709,-0.2191,1.2,-1.9,1.0,1023,chair,0
-0.01,-0.103,-0.017,0.6782,-0.2092,-0.6701,-0.2169,7.3,-1.4,-3.7,1023,chair,0
-0.007,-0.09,-0.017,0.6796,-0.2102,-0.6694,-0.2138,10.2,-1.0,-8.1,1023,chair,0
0.003,-0.077,-0.015,0.681,-0.2115,-0.6687,-0.21,10.0,-0.7,-12.4,1023,chair,0
-0.004,-0.056,-0.013,0.6826,-0.2133,-0.6678,-0.206,7.8,-0.1,-16.5,1023,chair,0
-0.014,-0.043,-0.009,0.684,-0.2159,-0.6668,-0.2021,3.6,0.0,-19.5,1023,chair,0
-0.015,-0.038,-0.012,0.6853,-0.2191,-0.6655,-0.1985,-0.5,0.1,-21.7,1023,chair,0
-0.011,-0.024,-0.009,0.6864,-0.2229,-0.664,-0.1951,-3.8,0.4,-22.8,1023,chair,0
0.0,-0.026,-0.002,0.6874,-0.2271,-0.6625,-0.192,-5.4,1.0,-23.1,1023,chair,0
0.006,-0.018,0.003,0.6883,-0.2312,-0.661,-0.1889,-4.4,1.9,-23.1,1023,chair,0
0.002,-0.014,0.004,0.6892,-0.235,-0.6597,-0.1856,-1.2,2.7,-22.5,1023,chair,0
-0.004,-0.006,0.007,0.6901,-0.2382,-0.6586,-0.182,3.6,3.3,-21.8,1023,chair,0
-0.007,0.004,0.015,0.6911,-0.2406,-0.6577,-0.1779,8.5,3.8,-20.8,0,chair,0
-0.005,0.015,0.019,0.6923,-0.2422,-0.6571,-0.1735,13.1,4.2,-19.2,0,chair,0
-0.007,0.031,0.023,0.6934,-0.243,-0.6568,-0.1689,16.8,3.8,-18.0,0,chair,0
-0.011,0.04,0.025,0.6947,-0.2432,-0.6566,-0.1643,18.8,3.4,-16.2,0,chair,0
-0.011,0.049,0.024,0.6959,-0.2429,-0.6565,-0.1598,19.6,3.0,-14.1,0,chair,0
-0.012,0.052,0.033,0.6973,-0.2422,-0.6563,-0.1557,19.4,2.4,-12.0,0,chair,0
-0.01,0.063,0.03,0.6987,-0.2413,-0.656,-0.152,17.9,1.7,-9.7,0,chair,0
-0.013,0.071,0.033,0.6999,-0.2403,-0.6557,-0.1489,15.1,0.9,-7.7,0,chair,0
-0.005,0.071,0.03,0.7011,-0.2394,-0.6554,-0.1465,12.3,0.2,-5.5,0,chair,0
-0.002,0.069,0.022,0.7021,-0.2385,-0.655,-0.1447,9.7,-0.1,-3.3,0,chair,0
-0.002,0.067,0.023,0.703,-0.2376,-0.6546,-0.1435,7.2,-1.1,-0.6,0,chair,0
0.0,0.063,0.019,0.7039,-0.2368,-0.6542,-0.1429,5.1,-1.9,1.8,0,chair,0
0.004,0.059,0.015,0.7046,-0.2359,-0.6537,-0.1429,2.1,-2.6,3.8,0,chair,0
0.006,0.053,0.004,0.7052,-0.2353,-0.6532,-0.1435,-0.9,-3.2,5.5,0,chair,0
0.007,0.047,0.0,0.7056,-0.2348,-0.6526,-0.1445,-3.0,-3.6,7.1,0,chair,0
0.001,0.034,-0.005,0.7059,-0.2345,-0.6521,-0.1458,-4.3,-3.6,8.6,0,chair,0
0.005,0.028,-0.005,0.7061,-0.2341,-0.6516,-0.1474,-4.8,-3.6,10.1,0,chair,0
0.0,0.021,-0.009,0.7063,-0.2337,-0.6512,-0.1491,-4.8,-3.4,11.1,0,chair,0
0.004,0.013,-0.023,0.7063,-0.2333,-0.6509,-0.1509,-5.6,-3.2,11.7,1023,chair,0
0.0,0.008,-0.022,0.7063,-0.233,-0.6507,-0.1528,-6.6,-2.9,11.9,1023,chair,0
0.005,0.002,-0.021,0.7061,-0.2329,-0.6504,-0.1548,-7.5,-2.2,12.2,1023,chair,0
0.005,-0.008,-0.022,0.7058,-0.2329,-0.6502,-0.1568,-7.9,-1.7,12.3,1023,chair,0
0.012,-0.016,-0.02,0.7055,-0.233,-0.6501,-0.1587,-7.4,-0.9,12.4,1023,chair,0
0.016,-0.021,-0.024,0.7051,-0.233,-0.6501,-0.1605,-6.5,-0.2,12.4,1023,chair,0
0.01,-0.031,-0.025,0.7046,-0.233,-0.6502,-0.1621,-5.1,0.6,12.1,1023,chair,0
0.011,-0.036,-0.015,0.7042,-0.2328,-0.6505,-0.1633,-2.8,1.3,12.1,1023,chair,0
0.011,-0.036,-0.01,0.7038,-0.2323,-0.6508,-0.1643,-1.0,1.9,11.6,1023,chair,0
0.007,-0.039,-0.012,0.7035,-0.2318,-0.6511,-0.165,-0.2,2.2,10.8,1023,chair,0
0.006,-0.039,-0.008,0.7031,-0.2314,-0.6515,-0.1656,-0.6,2.2,9.8,1023,chair,0
0.008,-0.039,-0.002,0.7028,-0.2312,-0.6518,-0.1662,-1.7,2.4,8.5,1023,chair,0
0.007,-0.041,0.003,0.7025,-0.2313,-0.6519,-0.1666,-2.5,2.7,7.1,1023,chair,0
0.001,-0.044,0.004,0.7023,-0.2316,-0.652,-0.167,-2.9,2.8,5.4,1023,chair,0
-0.001,-0.049,0.004,0.702,-0.2322,-0.6521,-0.167,-2.4,3.1,3.5,1023,chair,0
-0.002,-0.054,0.013,0.7018,-0.2329,-0.6521,-0.1668,-1.4,3.1,1.7,1023,chair,0
0.0,-0.048,0.013,0.7018,-0.2335,-0.652,-0.1663,-0.3,3.0,0.1,0,chair,0
0.005,-0.043,0.012,0.7018,-0.2342,-0.6519,-0.1654,1.0,3.0,-1.4,0,chair,0
0.005,-0.033,0.013,0.702,-0.2349,-0.6518,-0.1643,1.4,2.7,-2.8,0,chair,0
-0.005,-0.033,0.012,0.7022,-0.2357,-0.6516,-0.1631,1.2,2.4,-3.9,0,chair,0
-0.002,-0.028,0.019,0.7025,-0.2366,-0.6513,-0.1619,1.0,2.2,-4.7,0,chair,0
0.001,-0.022,0.019,0.7028,-0.2374,-0.6509,-0.1606,1.3,2.0,-5.4,0,chair,0
0.001,-0.016,0.019,0.7032,-0.2383,-0.6505,-0.1592,2.0,1.7,-6.1,0,chair,0
0.002,-0.01,0.014,0.7037,-0.2391,-0.6501,-0.1577,2.9,1.3,-6.5,0,chair,0
-0.004,-0.001,0.019,0.7042,-0.2397,-0.6497,-0.1562,3.7,1.1,-6.6,0,chair,0
-0.003,0.002,0.022,0.7047,-0.2402,-0.6493,-0.1546,4.1,0.7,-6.2,0,chair,0
0.0,0.007,0.018,0.7053,-0.2406,-0.6489,-0.1532,3.8,0.5,-5.7,0,chair,0
0.002,0.017,0.019,0.7059,-0.2409,-0.6484,-0.152,3.2,0.0,-5.3,0,chair,0
0.001,0.019,0.016,0.7064,-0.2412,-0.6479,-0.1509,1.9,-0.3,-5.0,0,chair,0
0.0,0.018,0.01,0.7069,-0.2416,-0.6475,-0.1501,1.4,-0.6,-4.5,0,chair,0
0.002,0.017,0.009,0.7073,-0.242,-0.647,-0.1493,1.2,-0.6,-3.9,0,chair,0
0.0,0.02,0.002,0.7077,-0.2424,-0.6466,-0.1486,0.8,-0.5,-3.4,0,chair,0
0.0,0.014,0.003,0.7081,-0.2427,-0.6463,-0.1481,0.8,-0.5,-2.5,0,chair,0
0.001,0.016,-0.004,0.7084,-0.2429,-0.646,-0.1476,0.6,-0.5,-1.8,0,chair,0
0.003,0.018,-0.003,0.7086,-0.2431,-0.6457,-0.1473,0.4,-0.5,-0.9,1023,chair,0
0.004,0.015,0.0,0.7088,-0.2432,-0.6455,-0.1471,0.0,-0.5,-0.4,1023,chair,0
0.003,0.014,-0.007,0.7089,-0.2434,-0.6453,-0.147,-0.6,-0.6,0.0,1023,chair,0
0.003,0.012,-0.003,0.709,-0.2436,-0.6451,-0.147,-1.2,-0.3,0.0,1023,chair,0
0.0,0.01,-0.005,0.7091,-0.2438,-0.6449,-0.147,-1.2,-0.1,0.4,1023,chair,0
-0.003,0.009,-0.001,0.7091,-0.2441,-0.6448,-0.147,-1.4,0.0,0.6,1023,chair,0
-0.003,0.005,-0.004,0.7091,-0.2444,-0.6447,-0.1472,-1.9,0.5,0.8,1023,chair,0
0.0,0.001,-0.001,0.709,-0.2447,-0.6447,-0.1472,-1.4,0.7,0.7,1023,chair,0
0.003,0.003,0.0,0.709,-0.2449,-0.6446,-0.1472,-0.7,0.9,0.4,1023,chair,0
-0.002,0.003,0.0,0.709,-0.2451,-0.6445,-0.1471,-0.7,0.8,0.2,1023,chair,0
-0.005,0.007,0.001,0.709,-0.2454,-0.6445,-0.1471,-1.1,0.3,0.2,1023,chair,0
-0.002,0.005,0.008,0.709,-0.2457,-0.6443,-0.1471,-1.6,0.2,0.4,1023,chair,0
0.003,0.0,0.007,0.7091,-0.246,-0.6441,-0.1473,-2.5,0.0,0.5,1023,chair,0
0.0,0.001,0.003,0.7091,-0.2464,-0.6438,-0.1475,-2.9,-0.1,0.5,1023,chair,0
-0.002,-0.002,0.0,0.7091,-0.2469,-0.6436,-0.1477,-2.9,-0.2,0.1,1023,chair,0
-0.005,-0.004,-0.001,0.7092,-0.2474,-0.6433,-0.1478,-2.0,-0.2,0.0,1023,chair,0
0.0,-0.004,0.0,0.7092,-0.2478,-0.6431,-0.1478,-0.9,0.0,0.0,1023,chair,0
0.005,0.0,0.004,0.7093,-0.248,-0.6429,-0.1477,0.0,0.0,0.0,0,chair,0
0.009,0.003,0.0,0.7094,-0.2482,-0.6428,-0.1475,-0.5,-0.1,-0.2,0,chair,0
0.004,0.006,0.0,0.7095,-0.2484,-0.6426,-0.1475,-0.5,-0.1,-0.1,0,chair,0
0.002,0.002,-0.002,0.7096,-0.2486,-0.6425,-0.1473,0.0,0.0,0.0,0,chair,0
-0.002,0.004,-0.005,0.7097,-0.2487,-0.6424,-0.1472,0.0,0.0,0.0,0,chair,0
-0.003,0.006,-0.005,0.7097,-0.2488,-0.6423,-0.1471,0.0,0.0,0.0,0,chair,0
-0.002,0.002,-0.007,0.7097,-0.2489,-0.6423,-0.147,-0.3,0.4,0.8,0,chair,0
-0.006,0.003,-0.007,0.7097,-0.249,-0.6424,-0.147,-0.1,0.6,0.7,0,chair,0
0.0,0.004,-0.005,0.7096,-0.249,-0.6424,-0.147,-0.2,0.8,0.7,0,chair,0
0.002,0.002,-0.002,0.7095,-0.2491,-0.6425,-0.147,-0.3,0.8,1.0,0,chair,0
0.001,0.003,0.0,0.7094,-0.2492,-0.6425,-0.147,-0.5,0.8,1.0,0,chair,0
0.002,0.002,0.0,0.7094,-0.2492,-0.6425,-0.147,-0.4,0.8,1.0,0,chair,0
0.001,0.0,-0.003,0.7094,-0.2493,-0.6426,-0.147,-0.3,0.6,1.1,0,chair,0
